Time,GyroscopeX,GyroscopeY,GyroscopeZ
168.000627,-4.97,-14.558,-6.121
168.011281,-4.9,-15.474,-2.942
168.021935,-5.32,-16.289,0.469
168.032589,-4.48,-16.467,3.494
168.043243,-3.92,-16.089,6.19
168.053897,-2.8,-15.14,8.063
168.064551,-1.75,-13.571,8.838
168.075205,-1.82,-12.006,8.829
168.085859,-3.15,-10.647,8.785
168.096513,-4.27,-9.828,8.574
168.107167,-5.6,-9.504,8.346
168.117818,-6.86,-8.823,8.111
168.128469,-7.98,-9.041,8.144
168.13912,-8.61,-9.155,7.981
168.149771,-8.47,-9.398,8.152
168.160422,-7.91,-9.942,8.411
168.171073,-7.28,-10.217,8.363
168.181724,-7.07,-10.424,8.326
168.192375,-7,-10.205,8.294
168.203026,-8.4,-10.076,7.961
168.213677,-10.15,-9.873,7.215
168.224328,-11.41,-9.841,6.226
168.234979,-12.25,-10.222,5.163
168.245676,-14.35,-10.246,5.301
168.256373,-15.75,-9.711,4.685
168.26707,-16.87,-9.05,2.953
168.277767,-17.85,-8.402,1.291
168.288464,-19.88,-7.222,-0.563
168.299161,-20.16,-6.14,-1.864
168.309858,-17.57,-5.004,-3.868
168.320555,-14.91,-4.109,-6.127
168.331252,-13.65,-3.326,-6.131
168.341949,-12.81,-2.969,-6.139
168.352646,-13.02,-3.237,-5.831
168.363343,-13.09,-3.614,-4.902
168.374048,-12.32,-4.092,-5.413
168.384753,-11.27,-4.328,-6.094
168.395458,-11.2,-4.109,-7.335
168.406163,-11.55,-3.566,-8.803
168.416868,-13.02,-2.994,-9.626
168.427573,-12.32,-2.369,-9.943
168.438278,-12.67,-2.232,-11.127
168.448983,-9.94,-2.795,-8.738
168.459688,-6.51,-4.036,-7.749
168.470393,-3.5,-5.212,-6.321
168.481098,-0.49,-6.16,-4.569
168.491803,1.68,-6.809,-2.906
168.502508,2.73,-7.656,-2.132
168.513241,3.57,-7.96,-2.825
168.523974,2.94,-8.139,-3.425
168.534707,0.91,-8.143,-4.208
168.54544,-2.38,-8.699,-5.088
168.556173,-5.11,-9.311,-6.049
168.566906,-7.91,-9.441,-6.925
168.577639,-10.92,-10.021,-7.667
168.588372,-13.93,-10.248,-7.991
168.599105,-16.59,-11.201,-8.23
168.609838,-18.69,-11.497,-8.567
168.620571,-20.65,-11.967,-8.721
168.631304,-22.12,-11.963,-9.146
168.642049,-23.24,-11.457,-9.199
168.652794,-24.5,-11.169,-9.219
168.663539,-25.76,-10.869,-9.309
168.674284,-26.32,-10.727,-9.71
168.685029,-27.58,-10.658,-9.698
168.695774,-28.56,-11.108,-9.564
168.706519,-29.54,-11.623,-8.66
168.717264,-30.17,-12.478,-8.242
168.728009,-31.71,-13.597,-7.942
168.738754,-31.78,-14.137,-6.9
168.749499,-31.92,-15.057,-5.711
168.760244,-30.59,-15.839,-4.499
168.770989,-28.35,-15.799,-3.923
168.781745,-25.55,-14.886,-3.051
168.792501,-20.93,-14.367,-1.965
168.803257,-16.66,-13.641,-2.05
168.814013,-13.86,-13.487,-0.104
168.824769,-10.36,-13.515,1.668
168.835525,-6.72,-14.115,1.847
168.846281,-3.29,-15.088,3.737
168.857037,-0.77,-16.673,5.874
168.867793,-0.77,-18.729,7.857
168.878549,-0.35,-20.103,8.397
168.889305,-0.49,-21.3,7.119
168.900061,0.35,-21.483,5.737
168.910811,-0.91,-21.11,4.025
168.921561,-3.64,-20.615,2.833
168.932311,-7.14,-19.172,1.098
168.943061,-10.36,-18.049,-0.837
168.953811,-11.62,-17.068,-2.37
168.964561,-9.94,-16.075,-3.972
168.975311,-7.49,-15.527,-5.865
168.986061,-4.41,-15.203,-7.301
168.996811,-0.49,-14.283,-7.281
169.007561,2.45,-13.638,-6.101
169.018311,3.78,-13.419,-4.925
169.029061,3.5,-13.321,-3.06
169.039811,1.75,-13.588,-0.335
169.050578,-0.98,-14.022,2.93
169.061345,-4.62,-14.751,5.857
169.072112,-9.8,-16.227,8.583
169.082879,-15.05,-18.522,10.31
169.093646,-20.51,-21.903,11.349
169.104413,-25.69,-25.31,11.317
169.11518,-29.89,-28.87,10.547
169.125947,-33.18,-31.486,8.451
169.136714,-35.84,-33.449,6.683
169.147481,-37.1,-34.986,6.128
169.158248,-37.94,-35.926,5.82
169.169015,-37.66,-36.502,5.86
169.179801,-37.38,-36.62,6.124
169.190587,-36.89,-35.975,7.304
169.201373,-34.93,-34.912,8.131
169.212159,-33.95,-32.958,8.334
169.222945,-32.41,-31.356,9.327
169.233731,-31.01,-30.079,9.339
169.244517,-31.29,-28.805,8.568
169.255303,-31.71,-27.991,7.575
169.266089,-32.2,-27.427,5.186
169.276875,-32.62,-27.521,2.895
169.287661,-31.92,-27.355,1.147
169.298447,-31.57,-27.039,-0.645
169.30922,-29.89,-25.64,-0.114
169.319993,-25.97,-22.331,-0.739
169.330766,-24.5,-18.329,-1.668
169.341539,-24.78,-14.59,-0.298
169.352312,-23.1,-10.908,-0.217
169.363085,-17.29,-6.938,-2.574
169.373858,-11.34,-3.358,-5.141
169.384631,-9.38,-1.432,-3.167
169.395404,-7.21,-0.742,-0.628
169.406177,-6.09,0.093,-0.126
169.41695,-6.16,1.557,0.843
169.427723,-6.65,2.81,0.993
169.438496,-8.54,3.82,0.105
169.449237,-7.56,4.914,-1.266
169.459978,-6.37,6.346,-2.933
169.470719,-6.23,8.474,-4.121
169.48146,-5.95,10.875,-6.043
169.492201,-5.32,12.849,-7.97
169.502942,-3.71,14.483,-9.174
169.513683,-1.68,16.008,-9.759
169.524424,0,16.77,-10.051
169.535165,-0.14,16.271,-9.641
169.545906,-0.35,15.562,-8.842
169.556647,-0.14,14.301,-8.14
169.567388,1.4,12.764,-7.487
169.578129,3.01,11.981,-7.483
169.588848,4.76,12.642,-8.006
169.599567,6.93,13.563,-7.986
169.610286,9.87,14.682,-8.286
169.621005,13.44,16.259,-9.572
169.631724,16.87,18.615,-10.436
169.642443,21,21.093,-10.781
169.653162,24.22,23.967,-11.767
169.663881,27.44,27.171,-12.197
169.6746,29.82,29.689,-13.175
169.685319,33.11,31.716,-13.386
169.696038,35.28,33.346,-12.956
169.706757,39.06,34.279,-13.005
169.71746,44.24,35.159,-13.561
169.728163,51.45,35.601,-14.051
169.738866,59.64,35.56,-14.627
169.749569,69.51,36.48,-17.024
169.760272,80.36,37.19,-19.031
169.770975,90.93,37.364,-19.214
169.781678,98.28,36.533,-18.934
169.792381,98.91,34.696,-16.983
169.803084,90.79,31.298,-15.45
169.813787,77.84,26.834,-13.109
169.82449,67.06,21.06,-11
169.835193,61.88,15.76,-9.162
169.84587,62.23,11.373,-8.87
169.856547,62.65,8.976,-10.998
169.867224,62.02,8.384,-10.463
169.877901,61.39,8.604,-8.079
169.888578,58.03,8.28,-4.226
169.899255,56.49,8.811,-3.209
169.909932,58.45,9.971,-4.142
169.920609,62.02,11.284,-5.545
169.931286,66.15,12.935,-6.036
169.941963,69.23,14.536,-6.251
169.95264,70.21,15.611,-5.493
169.963317,71.19,16.386,-4.645
169.973994,72.1,16.941,-4.974
169.98463,71.89,17.379,-5.039
169.995266,68.53,17.079,-4.949
170.005902,64.89,16.527,-5.047
170.016538,59.43,15.725,-5.33
170.027174,56.21,13.579,-4.856
170.03781,55.72,10.494,-3.481
170.048446,56.35,7.311,-2.762
170.059082,57.89,4.302,-2.227
170.069718,59.43,1.691,-1.123
170.080354,59.15,0.024,-1.346
170.09099,58.24,-0.564,-2.445
170.101626,57.4,-0.799,-3.126
170.112269,56.56,-0.252,-3.812
170.122912,55.23,0.141,-4.027
170.133555,54.67,0.547,-3.102
170.144198,52.64,1.249,-3.05
170.154841,50.05,1.561,-3.208
170.165484,48.3,1.682,-2.689
170.176127,45.78,1.828,-2.308
170.18677,43.33,2.226,-1.74
170.197413,40.67,2.591,-1.391
170.208056,37.45,2.761,-1.148
170.218699,35.21,3.033,-0.674
170.229342,34.09,3.491,-0.451
170.239963,33.18,3.718,-0.126
170.250584,32.13,3.747,0.519
170.261205,30.24,4.067,0.717
170.271826,27.3,3.317,0.94
170.282447,23.94,2.851,1.569
170.293068,20.09,2.421,1.991
170.303689,15.75,2.652,1.889
170.31431,13.79,2.823,2.133
170.324931,12.18,3.925,1.119
170.335552,9.87,4.76,-0.795
170.346173,8.26,5.271,-1.274
170.356794,7.56,6.038,-1.992
170.367415,6.72,6.905,-2.479
170.378018,5.81,7.266,-2.912
170.388621,4.9,6.617,-2.458
170.399224,4.69,5.344,-1.688
170.409827,3.85,5.065,-1.31
170.42043,3.64,4.351,-1.294
170.431033,3.36,3.682,-1.128
170.441636,2.1,2.769,-0.791
170.452239,-0.63,2.372,-1.359
170.462842,-4.34,1.674,-1.837
170.473445,-8.54,1.419,-2.806
170.484048,-12.81,1.184,-3.487
170.494651,-16.1,1.248,-4.258
170.505267,-17.5,1.5,-5.28
170.515883,-17.99,1.731,-6.59
170.526499,-17.5,2.124,-6.805
170.537115,-16.1,1.718,-6.521
170.547731,-14.7,0.952,-5.803
170.558347,-12.95,0.182,-4.659
170.568963,-11.83,-0.467,-2.997
170.579579,-11.48,-1.468,-1.752
170.590195,-11.83,-2.806,-0.21
170.600811,-13.44,-3.552,0.795
170.611427,-16.52,-4.517,1.833
170.622043,-20.58,-4.991,2.105
170.632677,-24.92,-4.574,1.752
170.643311,-28.84,-4.059,0.848
170.653945,-31.71,-3.406,-0.032
170.664579,-34.72,-2.486,-1.22
170.675213,-37.52,-1.756,-2.94
170.685847,-40.39,-0.621,-3.735
170.696481,-42.28,-0.256,-3.386
170.707115,-43.54,-0.422,-2.847
170.717749,-43.61,-0.763,-2.125
170.728383,-42.35,-0.633,-1.249
170.739017,-40.95,-0.637,-0.823
170.749651,-38.99,-1.022,-0.251
170.760285,-38.43,-1.529,1.01
170.770919,-37.8,-2.331,3.143
170.781553,-36.47,-4.05,6.038
170.792187,-36.68,-5.721,7.45
170.802821,-36.19,-6.945,9.153
170.813455,-29.89,-8.356,12.316
170.824089,-16.17,-7.484,12.612
170.834723,-8.26,-5.725,5.459
170.845357,-6.65,-5.924,3.362
170.855991,-8.33,-6.402,5.268
170.866625,-9.17,-6.203,4.948
170.877259,-14.63,-4.647,-0.251
170.887893,-22.12,-3.006,-5.932
170.898528,-28.49,-0.618,-10.202
170.909163,-30.17,2.2,-13.686
170.919798,-28.07,5.184,-16.5
170.930433,-21.14,6.931,-18.751
170.941068,-12.32,6.919,-18.682
170.951703,-4.97,5.476,-16.947
170.962338,-0.56,3.692,-12.072
170.972973,0.63,1.309,-4.603
170.983608,-1.12,-2.566,2.462
170.994243,-5.53,-6.637,9.421
171.004878,-10.78,-9.848,14.328
171.015513,-16.17,-11.984,17.576
171.026148,-21.77,-12.742,18.651
171.036833,-27.44,-12.609,17.892
171.047518,-32.34,-11.737,16.98
171.058203,-37.03,-10.894,15.423
171.068888,-39.62,-9.475,13.825
171.079573,-42.07,-8.42,13.087
171.090258,-44.1,-7.48,13.395
171.100943,-45.71,-7.005,14.331
171.111628,-47.6,-5.963,14.87
171.122313,-49.63,-6.052,14.57
171.132998,-50.4,-6.044,14.927
171.143683,-50.33,-6.36,15.511
171.154393,-49.91,-7.52,16.444
171.165103,-50.4,-8.351,16.724
171.175813,-50.33,-9.04,16.602
171.186523,-49.77,-9.531,16.16
171.197233,-50.19,-9.876,16.1
171.207943,-50.19,-9.762,16.262
171.218653,-49.63,-9.608,15.791
171.229363,-49.49,-9.337,15.057
171.240073,-49.21,-8.526,14.49
171.250783,-50.12,-7.423,13.476
171.261493,-52.43,-6.012,12.729
171.272203,-54.81,-5.476,13.321
171.282913,-57.33,-5.091,13.958
171.293623,-59.08,-5.241,15.211
171.304333,-60.34,-6.818,16.497
171.315043,-61.74,-8.258,17.807
171.325753,-63.98,-10.382,18.569
171.336463,-66.43,-12.025,18.209
171.347173,-66.92,-14.372,19.429
171.357883,-62.3,-16.184,22.451
171.368593,-56.35,-14.624,18.035
171.379303,-48.93,-13.254,11.879
171.390013,-38.36,-11.263,11.875
171.400723,-27.93,-8.206,9.855
171.411433,-21.63,-7.566,6.627
171.422143,-17.15,-7.538,2.438
171.432872,-9.8,-8.037,0.431
171.443601,1.05,-8.094,-0.859
171.45433,12.11,-6.488,-2.708
171.465059,21.21,-4.332,-5.668
171.475788,24.22,-2.098,-8.26
171.486517,19.46,-1.566,-7.242
171.497246,10.92,-2.028,-4.622
171.507975,2.1,-3.629,-1.99
171.518704,-7.56,-5.426,0.536
171.529433,-18.97,-7.307,2.337
171.540162,-29.26,-8.397,4.49
171.550891,-38.57,-8.985,4.6
171.56162,-46.34,-8.73,4.36
171.572349,-52.64,-7.586,3.922
171.583129,-56.7,-5.518,3.079
171.593909,-59.01,-3.856,2.519
171.604689,-59.78,-2.254,2.304
171.615469,-60.48,-1.618,1.918
171.626249,-59.29,-1.123,1.934
171.637029,-56.49,-0.94,2.109
171.647809,-54.74,-0.361,1.642
171.658589,-52.71,-0.462,0.203
171.669369,-49.7,-0.604,-0.604
171.680149,-47.46,-0.625,-2.1
171.690948,-45.85,-0.52,-3.503
171.701747,-43.96,-0.808,-4.692
171.712546,-40.53,-1.023,-5.085
171.723345,-37.24,-1.976,-5.324
171.734144,-34.23,-3.022,-5.437
171.744943,-30.45,-4.603,-4.934
171.755742,-26.6,-5.848,-4.727
171.766541,-23.59,-6.497,-4.273
171.77734,-22.26,-6.906,-3.563
171.788139,-21.21,-7.433,-2.59
171.798938,-21.21,-8.67,-0.818
171.809737,-19.95,-9.772,1.404
171.820536,-18.62,-10.068,3.485
171.83134,-17.85,-10.161,4.819
171.842144,-16.87,-10.469,5.76
171.852948,-16.8,-10.104,6.108
171.863752,-18.13,-9.626,6.619
171.874556,-20.16,-9.455,8.071
171.88536,-15.61,-8.656,11.197
171.896164,-10.36,-6.641,8.638
171.906968,-11.27,-4.711,4.145
171.917772,-10.71,-2.963,5.519
171.928576,-10.78,-0.709,4.424
171.93938,-13.37,1.416,2.453
171.950184,-13.86,2.875,1.431
171.960973,-9.45,4.481,-0.418
171.971762,-7.56,5.814,-5.159
171.982551,-8.54,7.61,-7.685
171.99334,-8.96,9.358,-8.728
172.004129,-7.42,10.428,-9.961
172.014918,-3.71,10.128,-11.08
172.025707,2.38,9.584,-10.82
172.036496,10.85,8.733,-10.828
172.047285,19.88,6.268,-10.552
172.058074,25.9,3.725,-8.228
172.068863,25.69,2.079,-5.746
172.079652,22.26,0.612,-3.873
172.090441,18.34,-0.592,-3.09
172.101194,12.67,-0.9,-0.941
172.111947,6.37,-0.888,1.407
172.1227,-1.19,-0.308,0.941
172.133453,-10.08,0.256,0.969
172.144206,-19.67,1.265,1.289
172.154959,-27.86,2.648,1.107
172.165712,-34.79,4.051,0.003
172.176465,-40.88,5.474,-2.02
172.187218,-45.71,6.67,-3.16
172.197971,-48.58,7.351,-4.603
172.208724,-49.49,8.365,-5.917
172.219477,-49.98,9.609,-8.541
172.23023,-50.33,9.982,-10.252
172.240946,-49.21,10.266,-11.055
172.251662,-48.65,10.379,-12.102
172.262378,-46.69,10.144,-12.783
172.273094,-43.96,8.968,-12.564
172.28381,-40.53,7.168,-12.028
172.294526,-36.26,4.621,-10.487
172.305242,-32.2,2.124,-9.221
172.315958,-28.14,0.181,-8.284
172.326674,-24.57,-1.947,-7.096
172.33739,-21.28,-3.63,-6.824
172.348106,-18.2,-4.238,-7.002
172.358822,-16.45,-4.952,-6.986
172.369537,-16.73,-5.147,-7.091
172.380252,-17.36,-5.013,-7.85
172.390967,-20.3,-4.908,-8.044
172.401682,-24.43,-5.394,-6.495
172.412397,-25.55,-5.495,-4.31
172.423112,-19.46,-4.133,-7.197
172.433827,-14.14,-3.076,-14.403
172.444542,-12.6,-3.14,-13.632
172.455257,-11.13,-3.063,-12.055
172.465972,-12.18,-1.778,-12.895
172.476687,-17.01,-1.932,-11.216
172.487402,-17.92,-4.036,-6.54
172.498092,-12.6,-5.669,-4.127
172.508782,-3.64,-7.3,-5.765
172.519472,3.22,-9.688,-3.912
172.530162,8.4,-11.541,-0.258
172.540852,11.06,-12.485,1.068
172.551542,12.04,-13.71,2.771
172.562232,11.27,-14.386,4.998
172.572922,10.15,-14.183,6.668
172.583612,10.64,-13.23,6.907
172.594302,8.89,-11.094,6.076
172.604992,5.81,-8.134,5.816
172.615682,1.54,-5.048,5.649
172.626372,-4.2,-2.748,5.913
172.637039,-11.41,-1.422,6.857
172.647706,-18.48,0.131,8.126
172.658373,-24.57,1.307,7.907
172.66904,-30.59,2.471,7.757
172.679707,-34.44,2.71,8.012
172.690374,-36.47,2.686,8.15
172.701041,-37.17,3.29,7.546
172.711708,-36.75,3.407,7.282
172.722375,-35.35,2.941,6.702
172.733042,-33.81,2.6,6.216
172.743709,-31.22,2.754,5.746
172.754376,-28.35,2.685,4.525
172.765019,-25.97,2.462,3.775
172.775662,-24.64,1.886,3.815
172.786305,-24.5,0.95,5.498
172.796948,-24.36,-0.741,6.622
172.807591,-23.52,-2.023,5.827
172.818234,-21.77,-2.757,4.347
172.828877,-20.65,-3.588,3.419
172.83952,-19.88,-4.825,2.774
172.850163,-20.37,-6.236,2.312
172.860806,-22.12,-7.737,1.55
172.871449,-23.87,-8.961,0.837
172.882092,-25.13,-10.223,0.33
172.892735,-25.62,-11.338,0.204
172.903361,-27.02,-12.696,1.458
172.913987,-27.44,-14.216,5.241
172.924613,-22.47,-15.392,7.877
172.935239,-14.63,-16.722,3.733
172.945865,-9.87,-18.422,2.083
172.956491,-6.16,-19.175,6.357
172.967117,-5.32,-20.481,8.117
172.977743,-6.79,-22.366,10.343
172.988369,-3.57,-22.581,9.95
172.998995,3.71,-21.746,4.411
173.009621,8.19,-19.938,-0.601
173.020247,11.27,-16.841,-3.254
173.030873,15.26,-13.626,-8.587
173.041507,20.37,-9.742,-14.086
173.052141,24.57,-4.954,-20.278
173.062775,27.3,-0.823,-25.165
173.073409,26.6,1.87,-26.325
173.084043,23.1,3.022,-23.99
173.094677,19.25,3.326,-20.88
173.105311,15.61,3.392,-16.817
173.115945,11.27,2.78,-11.736
173.126579,7.35,1.86,-5.714
173.137213,3.64,0.803,-0.925
173.147847,-0.14,0.171,2.66
173.158489,-4.55,-0.364,5.693
173.169131,-7.63,-1.004,8.921
173.179773,-10.5,-0.984,11.626
173.190415,-13.51,-0.679,13.528
173.201057,-16.38,-0.249,14.314
173.211699,-18.76,0.59,14.391
173.222341,-22.75,1.036,14.683
173.232983,-26.11,2.378,15.133
173.243625,-29.96,3.368,15.165
173.254267,-33.6,4.252,14.184
173.264909,-36.89,5.245,12.582
173.275551,-38.99,5.435,10.696
173.286193,-39.76,5.171,8.162
173.296843,-39.13,4.51,6.268
173.307493,-36.54,3.8,4.651
173.318143,-33.6,2.271,3.244
173.328793,-30.38,0.832,3.345
173.339443,-27.09,-0.839,2.34
173.350093,-24.22,-2.408,1.566
173.360743,-22.61,-3.864,0.953
173.371393,-21.49,-4.894,-0.863
173.382043,-22.4,-5.908,-1.966
173.392693,-23.24,-6.452,-2.915
173.403343,-25.2,-6.704,-4.31
173.413993,-27.51,-7.113,-3.6
173.42467,-28.56,-7.928,-1.398
173.435347,-19.04,-7.782,-3.433
173.446024,-6.58,-7.536,-12.488
173.456701,-0.42,-7.135,-14.763
173.467378,-1.96,-7.52,-11.775
173.478055,-7.91,-6.372,-13.847
173.488732,-18.41,-5.071,-13.973
173.499409,-23.66,-4.669,-10.206
173.510086,-14.07,-2.933,-11.179
173.520763,-2.94,-1.483,-18.6
173.53144,0.84,-0.509,-18.073
173.542117,4.2,0.671,-12.676
173.552825,8.4,1.312,-9.862
173.563533,10.5,0.433,-4.473
173.574241,14,-2.538,0.69
173.584949,17.85,-5.522,4.713
173.595657,19.81,-8.506,8.736
173.606365,20.09,-9.994,11.53
173.617073,17.36,-9.978,12.243
173.627781,14.07,-8.984,11.85
173.638489,8.89,-7.902,10.548
173.649197,2.52,-7.448,9.988
173.659905,-4.13,-7.679,8.882
173.670613,-11.76,-7.416,6.582
173.681311,-18.34,-6.99,4.17
173.692009,-23.59,-6.926,2.191
173.702707,-26.39,-7.043,1.246
173.713405,-27.86,-7.23,0.289
173.724103,-28.7,-7.555,-0.692
173.734801,-28.77,-8.122,-1.503
173.745499,-28.7,-8.702,-1.037
173.756197,-26.6,-8.674,-1.601
173.766895,-26.6,-8.99,-3.433
173.777593,-26.95,-8.605,-2.797
173.788291,-26.6,-7.976,-2.331
173.798989,-25.48,-7.457,-2.452
173.809687,-23.73,-6.565,-1.868
173.820375,-21.63,-5.714,-1.86
173.831063,-18.69,-4.728,-1.402
173.841751,-16.1,-2.972,-0.88
173.852439,-14.7,-1.565,-1.2
173.863127,-13.44,-0.544,-0.949
173.873815,-13.02,0.369,-0.077
173.884503,-13.93,0.896,1.366
173.895191,-13.72,0.503,2.79
173.905879,-14.14,0.216,5.227
173.916567,-15.54,-1.081,8.552
173.927255,-13.58,-2.107,12.352
173.937943,-6.02,-2.415,12.084
173.948633,-0.49,-2.704,7.271
173.959323,2.8,-2.821,7.535
173.970013,7,-2.318,7.908
173.980703,6.37,-2.132,6.448
173.991393,3.22,-2.525,7.871
174.002083,3.92,-1.836,7.993
174.012773,10.08,0.272,4.1
174.023463,17.22,2.303,-3.788
174.034153,20.93,5.542,-8.05
174.044843,24.57,10.253,-12.195
174.055533,27.58,15.921,-17.735
174.066223,26.32,20.495,-21.904
174.076899,22.75,23.467,-22.233
174.087575,21.14,25.179,-20.652
174.098251,19.53,25.726,-18.92
174.108927,18.55,25.605,-15.814
174.119603,16.87,25.216,-13.608
174.130279,15.33,24.235,-12.075
174.140955,12.74,22.386,-8.847
174.151631,8.96,20.286,-5.806
174.162307,1.96,16.39,-2.654
174.172983,-5.6,12.299,1.6
174.183659,-13.16,8.236,4.082
174.194335,-20.44,4.19,6.07
174.205011,-27.65,0.155,9.197
174.215676,-33.67,-2.833,10.02
174.226341,-38.08,-5.331,10.077
174.237006,-41.09,-7.513,9.551
174.247671,-43.12,-9.496,7.495
174.258336,-45.99,-10.21,5.094
174.269001,-48.23,-10.595,3.25
174.279666,-49.77,-10.936,1.555
174.290331,-49.7,-11.942,-0.4
174.300996,-48.44,-12.173,-2.715
174.311661,-45.29,-12.304,-4.799
174.322326,-41.72,-12.794,-6.45
174.332991,-37.03,-12.762,-7.439
174.343656,-31.5,-12.697,-8.21
174.354355,-25.9,-11.927,-9.353
174.365054,-20.79,-10.885,-11.231
174.375753,-16.73,-10.022,-12.5
174.386452,-14.14,-8.854,-13.076
174.397151,-13.58,-7.792,-13.457
174.40785,-16.38,-7.159,-12.209
174.418549,-19.04,-6.874,-8.178
174.429248,-16.59,-6.051,-7.606
174.439947,-12.32,-5.269,-11.236
174.450646,-8.05,-4.576,-11.54
174.461345,-5.32,-3.777,-10.83
174.472048,-6.58,-3.168,-9.444
174.482751,-10.5,-3.265,-6.475
174.493454,-11.76,-4.672,-2.53
174.504157,-8.61,-6.086,1.059
174.51486,-0.28,-7.518,2.726
174.525563,8.4,-8.057,3.768
174.536266,15.54,-8.044,6.116
174.546969,22.26,-7.987,7.406
174.557672,26.32,-7.063,8.208
174.568375,26.04,-5.729,8.301
174.579078,24.08,-5.193,8.893
174.589781,21.21,-5.218,9.031
174.600484,17.08,-5.274,8.95
174.611197,13.02,-4.719,8.622
174.62191,8.82,-4.512,7.45
174.632623,3.71,-4.703,6.918
174.643336,-0.98,-5.043,7.64
174.654049,-6.23,-6.081,7.884
174.664762,-11.2,-6.973,8.508
174.675475,-16.03,-8.547,9.368
174.686188,-19.6,-9.743,10.508
174.696901,-21.49,-10.935,11.222
174.707614,-22.82,-12.557,11.149
174.718327,-24.29,-13.291,10.877
174.72904,-25.83,-14.057,10.387
174.739772,-26.04,-14.41,9.969
174.750504,-26.11,-14.702,9.207
174.761236,-26.11,-15.108,8.282
174.771968,-25.62,-15.148,7.707
174.7827,-24.15,-15.128,6.786
174.793432,-22.12,-14.95,4.969
174.804164,-17.85,-14.208,3.181
174.814896,-13.65,-13.702,1.92
174.825628,-9.87,-12.457,0.505
174.83636,-7.14,-11.922,-0.112
174.847092,-6.44,-11.593,-0.765
174.857824,-6.51,-11.739,-1.146
174.868587,-7.28,-12.128,-0.148
174.87935,-8.26,-12.72,0.387
174.890113,-7.91,-12.635,1.113
174.900876,-6.51,-12.003,1.153
174.911639,-5.53,-11.451,1.251
174.922402,-5.25,-11.045,3.383
174.933165,-2.17,-10.469,5.76
174.943928,7.7,-10.023,3.635
174.954691,13.3,-10.478,-0.639
174.965454,17.92,-11.305,2.84
174.976217,19.67,-11.889,3.732
174.98698,14.77,-12.529,4.543
174.997737,7.56,-13.449,6.94
175.008494,3.01,-14.086,7.325
175.019251,3.29,-13.308,5.33
175.030008,8.19,-11.577,2.366
175.040765,13.23,-9.752,-0.724
175.051522,18.97,-6.947,-4.139
175.062279,24.22,-3.217,-7.959
175.073036,27.65,0.854,-11.293
175.083793,29.68,3.931,-14.234
175.09455,30.94,6.575,-17.535
175.105307,30.59,8.091,-18.476
175.116064,28.21,8.89,-17.766
175.126821,24.85,9.105,-16.164
175.137578,21.7,8.165,-14.056
175.148324,18.48,5.854,-10.625
175.15907,15.75,4.362,-7.405
175.169816,11.41,2.866,-3.759
175.180562,7.56,1.577,-0.077
175.191308,3.5,0.398,2.984
175.202054,-0.28,-0.498,5.243
175.2128,-4.62,-0.883,7.023
175.223546,-8.68,-0.623,8.775
175.234292,-13.3,0.001,9.667
175.245038,-17.99,1.011,9.987
175.255784,-22.96,2.779,9.233
175.26653,-28.56,4.774,8.803
175.277276,-32.76,6.505,8.255
175.288022,-35.77,7.961,7.659
175.298768,-36.96,9.522,6.868
175.309514,-36.33,10.621,5.071
175.32026,-33.88,11.853,2.516
175.331006,-29.96,13.13,0.112
175.341752,-26.04,14.658,-2.107
175.352498,-21.28,15.489,-4.803
175.363244,-16.73,15.947,-6.997
175.37399,-13.3,15.631,-8.83
175.384736,-10.08,14.629,-10.002
175.395461,-7.84,12.962,-10.224
175.406186,-6.23,11.43,-9.997
175.416911,-6.51,9.479,-9.417
175.427636,-5.88,6.961,-7.231
175.438361,-1.12,5.494,-4.149
175.449086,6.51,4.427,-5.759
175.459811,16.1,4.297,-10.26
175.470536,25.34,4.682,-13.248
175.481261,31.92,5.468,-14.887
175.491986,35.98,5.878,-15.596
175.502711,38.43,5.27,-13.358
175.513436,44.52,4.609,-9.21
175.524161,54.18,4.139,-6.947
175.534892,63.42,3.101,-5.495
175.545623,70.63,1.5,-2.863
175.556354,76.44,0.008,0.357
175.567085,81.2,-1.042,1.878
175.577816,82.04,-2.627,1.598
175.588547,79.8,-5.202,1.286
175.599278,76.16,-7.741,0.767
175.610009,71.75,-10.008,-0.485
175.62074,65.66,-11.78,-2.93
175.631471,58.17,-12.855,-4.897
175.642202,50.68,-13.654,-6.815
175.652933,42.84,-14.035,-7.877
175.663676,35.07,-14.413,-8.157
175.674419,26.53,-15.098,-7.496
175.685162,16.87,-15.532,-6.648
175.695905,7.98,-15.917,-4.868
175.706648,-0.42,-17.007,-2.714
175.717391,-9.8,-17.485,-0.809
175.728134,-17.64,-18.134,2.062
175.738877,-24.22,-18.592,4.256
175.74962,-31.71,-18.535,5.546
175.760363,-38.29,-18.83,7.626
175.771106,-42.28,-18.915,10.525
175.781849,-44.03,-18.619,12.07
175.792581,-45.08,-18.773,12.541
175.803313,-45.64,-18.915,12.942
175.814045,-44.52,-19.142,12.618
175.824777,-42.42,-18.497,11.381
175.835509,-39.83,-17.646,10.18
175.846241,-37.03,-16.799,8.197
175.856973,-34.86,-16.069,6.478
175.867705,-33.04,-15.157,4.933
175.878437,-31.36,-14.46,4.203
175.889169,-30.31,-14.228,4.102
175.899901,-31.01,-13.977,4.288
175.910633,-32.9,-14.285,5.229
175.921365,-31.01,-14.84,7.974
175.932071,-24.01,-15.586,10.188
175.942777,-17.36,-15.907,6.364
175.953483,-13.51,-16.219,4.106
175.964189,-6.72,-15.36,5.679
175.974895,-0.42,-13.782,4.393
175.985601,3.15,-13.052,3.882
175.996307,9.52,-11.398,4.174
176.007013,17.08,-9.436,-0.1
176.017719,22.05,-7.227,-4.97
176.028425,24.15,-3.918,-6.804
176.039131,25.34,-0.528,-8.694
176.049837,25.69,2.03,-10.304
176.060543,26.53,5.12,-13.313
176.071249,27.37,8.156,-15.621
176.081955,27.86,11.279,-17.203
176.092661,28.91,13.594,-17.434
176.103373,29.61,16.376,-17.086
176.114085,30.38,17.747,-14.783
176.124797,29.96,17.857,-10.57
176.135509,28.21,17.221,-5.351
176.146221,24.57,16.07,0.772
176.156933,19.6,15.142,6.437
176.167645,13.02,14.518,11.587
176.178357,6.16,13.83,16.299
176.189069,-2.24,13.555,19.876
176.199781,-10.85,13.887,22.422
176.210486,-18.27,14.922,23.813
176.221191,-23.87,16.016,23.651
176.231896,-28.56,17.431,22.478
176.242601,-32.27,19.43,20.414
176.253306,-35.84,21.611,17.316
176.264011,-39.62,23.322,14.064
176.274716,-42.84,25.065,11.03
176.285421,-44.17,25.844,9.035
176.296126,-43.12,26.346,6.991
176.306831,-39.97,26.614,5.475
176.317536,-36.33,26.8,2.806
176.328241,-31.92,27.112,0.231
176.338946,-27.09,28.231,-2.486
176.349645,-22.75,29.142,-5.239
176.360344,-19.6,29.791,-8.11
176.371043,-18.41,30.569,-10.105
176.381742,-18.69,30.768,-11.634
176.392441,-19.67,31.104,-11.93
176.40314,-20.37,30.816,-11.91
176.413839,-18.9,30.172,-9.464
176.424538,-10.22,29.329,-5.49
176.435237,1.26,30.095,-11.042
176.445936,10.01,29.303,-18.645
176.456635,18.97,28.342,-18.032
176.467334,24.57,26.757,-17.104
176.478014,27.79,23.566,-13.117
176.488694,37.24,19.126,-7.289
176.499374,47.95,15.241,-9.041
176.510054,50.96,9.771,-11.071
176.520734,52.29,5.858,-7.426
176.531414,53.13,4.439,-5.828
176.542094,52.22,4.03,-6.326
176.552774,49.84,3.073,-7.348
176.563454,50.33,3.02,-9.063
176.574134,52.29,4.597,-11.557
176.584814,53.06,6.364,-13.52
176.595494,50.19,7.775,-15.475
176.606174,43.61,8.878,-17.697
176.616833,35.7,8.383,-16.505
176.627492,28.35,7.589,-12.807
176.638151,20.37,5.805,-10.349
176.64881,11.9,4.297,-7.843
176.659469,3.01,1.905,-4.355
176.670128,-5.46,-0.025,-2.279
176.680787,-14,-1.606,-0.567
176.691446,-23.24,-3.406,1.176
176.702105,-32.48,-4.866,2.198
176.712764,-41.65,-5.685,2.409
176.723423,-50.4,-6.212,2.174
176.734082,-59.22,-6.301,1.874
176.744744,-66.64,-6.467,2.414
176.755406,-72.31,-7.513,3.509
176.766068,-79.59,-8.324,2.868
176.77673,-87.22,-8.227,3.525
176.787392,-93.73,-8.13,5.39
176.798054,-97.86,-7.582,5.913
176.808716,-100.8,-6.09,5.11
176.819378,-103.18,-4.411,4.056
176.83004,-104.86,-2.238,4.226
176.840702,-105.28,0.605,5.438
176.851364,-105,4.015,5.044
176.862026,-103.74,7.036,4.439
176.872701,-103.32,9.343,5.059
176.883376,-102.62,9.895,6.365
176.894051,-103.67,9.153,6.945
176.904726,-107.03,7.325,9.252
176.915401,-103.88,6.052,13.648
176.926076,-88.55,7.158,7.375
176.936751,-81.83,4.769,4.395
176.947426,-71.05,0.793,13.645
176.958101,-64.12,-2.476,14.846
176.968776,-62.09,-5.383,15.612
176.979451,-49.63,-6.774,14.23
176.990126,-33.74,-6.56,9.79
177.000785,-24.71,-5.923,8.196
177.011444,-22.68,-4.147,7.798
177.022103,-21.35,-0.997,4.444
177.032762,-19.04,4.245,-1.099
177.043421,-16.03,9.723,-7.171
177.05408,-13.79,14.868,-13.371
177.064739,-10.29,18.448,-18.355
177.075398,-5.32,20.199,-21.032
177.086057,-0.63,20.763,-22.212
177.096716,3.01,20.033,-21.701
177.107375,4.41,18.014,-19.925
177.118034,2.1,14.592,-13.42
177.128693,-2.94,10.822,-5.342
177.139352,-8.54,7.433,0.173
177.150011,-15.26,5.232,4.192
177.16067,-21.84,3.869,7.079
177.171329,-28.77,3.241,9.03
177.181988,-34.93,3.112,10.571
177.192647,-40.53,3.712,10.392
177.203306,-46.55,4.36,9.938
177.213965,-53.41,4.806,9.022
177.224624,-60.97,5.167,7.379
177.235283,-67.34,4.226,4.655
177.245942,-73.36,2.385,2.197
177.256601,-79.24,0.535,0.592
177.267276,-83.79,-0.897,-2.575
177.277951,-86.87,-3.318,-5.774
177.288626,-88.9,-6.368,-9.439
177.299301,-87.78,-8.902,-12.8
177.309976,-84.77,-11.466,-15.598
177.320651,-79.52,-14.414,-17.824
177.331326,-72.73,-17.301,-19.186
177.342001,-65.24,-19.475,-19.356
177.352676,-58.73,-21.64,-19.169
177.363351,-56.21,-24.223,-18.629
177.374026,-60.48,-26.23,-15.713
177.384701,-59.01,-26.53,-14.416
177.395354,-58.52,-28.274,-18.633
177.406007,-59.22,-30.824,-13.041
177.41666,-51.52,-32.705,-8.823
177.427313,-31.92,-33.034,-15.421
177.437966,-16.03,-32.698,-20.55
177.448619,-11.27,-31.226,-18.016
177.459272,-6.79,-29.284,-17.745
177.469925,-1.05,-28.74,-15.587
177.480578,5.6,-29.372,-9.586
177.491231,15.82,-30.166,-4.679
177.501884,28.14,-30.409,-3.301
177.512537,34.79,-30.482,-1.679
177.52319,31.85,-29.824,0.641
177.533869,24.85,-29.009,0.856
177.544548,16.03,-28.263,-0.15
177.555227,9.03,-26.025,-0.751
177.565906,3.01,-23.755,-3.549
177.576585,-3.57,-21.89,-7.272
177.587264,-10.22,-20.86,-9.08
177.597943,-16.52,-20.901,-9.656
177.608622,-22.33,-22.661,-9.753
177.619301,-27.93,-24.875,-9.291
177.62998,-31.99,-28.058,-8.572
177.640659,-34.09,-30.572,-8.021
177.651338,-35.07,-32.291,-8.75
177.661994,-36.05,-34.055,-9.63
177.67265,-35.91,-35.219,-10.688
177.683306,-36.05,-36.168,-11.353
177.693962,-35.56,-36.939,-12.626
177.704618,-35.35,-37.957,-13.303
177.715274,-34.58,-38.812,-12.885
177.72593,-34.23,-39.526,-14.077
177.736586,-32.69,-39.672,-14.459
177.747242,-29.89,-39.952,-15.29
177.757898,-24.92,-39.705,-17.094
177.768554,-21.91,-39.389,-17.678
177.77921,-19.95,-39.753,-15.61
177.789866,-16.87,-41.018,-13.274
177.800542,-12.18,-42.879,-11.186
177.811218,-7.07,-44.314,-6.676
177.821894,-3.71,-45.923,-1.985
177.83257,0.77,-46.446,-0.229
177.843246,3.78,-45.456,-0.196
177.853922,4.62,-43.851,0.371
177.864598,4.62,-41.483,-0.562
177.875274,5.74,-38.936,-0.895
177.88595,7.91,-35.441,-1.771
177.896626,7,-32.919,-0.758
177.907302,6.02,-31.078,-0.717
177.917978,3.5,-28.43,-2.028
177.928642,2.17,-24.383,-4.015
177.939306,-1.19,-20.252,-7.694
177.94997,-3.15,-16.481,-10.938
177.960634,-7.49,-13.278,-14.994
177.971298,-9.59,-11.368,-16.149
177.981962,-11.48,-11.527,-17.67
177.992626,-12.81,-12.625,-15.874
178.00329,-10.36,-14.848,-15.768
178.013954,-7,-17.244,-16.688
178.024618,-1.61,-19.693,-16.907
178.035282,4.06,-22.824,-15.682
178.045946,8.26,-27.527,-13.597
178.05661,12.11,-34.238,-11.013
178.067274,14.7,-41.861,-6.884
178.077944,17.99,-49.982,-2.345
178.088614,21,-57.394,1.395
178.099284,23.73,-64.271,2.101
178.109954,26.32,-71.854,1.973
178.120624,28.98,-79.624,-0.321
178.131294,31.43,-87.171,-3.074
178.141964,33.32,-94.32,-5.258
178.152634,34.58,-101.116,-8.234
178.163304,35.35,-107.041,-10.913
178.173974,34.86,-110.8,-13.78
178.184644,33.39,-113.047,-15.953
178.195304,29.75,-114.061,-17.056
178.205964,25.34,-112.885,-17.275
178.216624,21.98,-110.375,-17.401
178.227284,17.5,-107.443,-17.097
178.237944,14.07,-103.344,-16.161
178.248604,10.92,-97.768,-15.533
178.259264,8.68,-93.478,-15.274
178.269924,6.58,-89.731,-14.756
178.280584,4.06,-85.704,-13.406
178.291244,1.61,-81.223,-12.616
178.301904,-1.54,-76.969,-10.942
178.312564,-4.48,-73.798,-7.966
178.323224,-3.78,-71.324,-5.468
178.333911,-4.97,-68.996,-3.352
178.344598,-7.35,-66.701,-0.246
178.355285,-9.1,-65.09,2.312
178.365972,-9.38,-64.089,2.276
178.376659,-7.35,-62.893,2.344
178.387346,-0.77,-60.391,-2.972
178.398033,3.08,-56.925,-10.535
178.40872,3.78,-53.333,-13.171
178.419407,5.53,-51.306,-13.382
178.430094,6.02,-49.197,-12.442
178.440781,4.2,-48.037,-8.541
178.451468,2.8,-47.987,-1.567
178.462187,1.4,-47.224,1.766
178.472906,1.54,-44.588,2.942
178.483625,3.15,-40.712,1.92
178.494344,3.78,-34.646,-0.636
178.505063,3.15,-28.718,-3.216
178.515782,2.38,-23.828,-5.552
178.526501,0.77,-20.24,-7.762
178.53722,-0.7,-17.766,-8.89
178.547939,-3.43,-16.343,-9.705
178.558658,-6.37,-15.581,-9.997
178.569377,-10.57,-15.8,-9.965
178.580096,-13.79,-15.645,-9.227
178.590832,-16.73,-14.822,-8.655
178.601568,-19.25,-13.293,-8.457
178.612304,-21.42,-11.148,-8.932
178.62304,-22.47,-7.844,-9.131
178.633776,-23.45,-3.882,-9.427
178.644512,-23.73,-0.164,-9.554
178.655248,-24.22,3.17,-9.108
178.665984,-25.06,7.054,-9.774
178.67672,-26.6,9.305,-9.235
178.687456,-27.51,10.951,-8.091
178.698192,-28.49,11.953,-8.128
178.708928,-29.68,12.772,-8.339
178.719664,-31.01,13.559,-8.769
178.730391,-30.1,13.356,-9.231
178.741118,-28.28,12.687,-10.273
178.751845,-26.67,11.49,-10.342
178.762572,-23.52,9.447,-9.636
178.773299,-19.95,7.034,-7.645
178.784026,-16.8,6.588,-6.728
178.794753,-14.07,7.023,-5.159
178.80548,-10.22,7.258,-3.269
178.816207,-8.47,7.359,-3.038
178.826934,-7.77,7.262,-1.278
178.837661,-6.02,6.086,-1.059
178.848388,-7.07,5.243,-1.919
178.859115,-8.47,4.866,-0.99
178.869824,-5.39,4.395,-1.144
178.880533,-2.38,5.121,-3.646
178.891242,2.59,8.117,-6.53
178.901951,4.27,10.651,-9.21
178.91266,4.76,11.292,-10.021
178.923369,4.55,10.185,-9.79
178.934078,4.34,8.405,-8.967
178.944787,3.08,7.33,-9.725
178.955496,-0.84,7.18,-9.68
178.966205,-2.03,7.066,-11.051
178.976914,-3.22,7.528,-13.67
178.987623,-4.69,8.29,-15.171
178.998345,-5.6,9.146,-15.589
179.009067,-5.6,8.59,-15.26
179.019789,-5.25,7.321,-14.915
179.030511,-5.46,5.691,-12.928
179.041233,-5.74,3.896,-9.193
179.051955,-6.3,2.602,-6.294
179.062677,-6.79,2.072,-3.686
179.073399,-7.35,2.165,-0.187
179.084121,-7.84,2.356,2.761
179.094843,-8.12,2.997,5.575
179.105565,-8.26,3.679,7.757
179.116287,-7.77,4.413,9.237
179.127013,-7.28,5.232,10.234
179.137739,-5.81,6.546,11.248
179.148465,-4.41,8.006,11.434
179.159191,-3.71,9.32,11.239
179.169917,-1.82,10.228,11.328
179.180643,-0.49,10.67,10.838
179.191369,0.14,10.175,10.821
179.202095,0.49,9.089,11.341
179.212821,1.19,8.355,11.069
179.223547,1.75,7.698,9.958
179.234273,2.59,7.211,9.09
179.244999,2.8,6.692,8.004
179.255725,2.87,6.096,6.548
179.266463,1.33,5.321,4.492
179.277201,-1.82,5.106,2.89
179.287939,-6.23,4.298,0.616
179.298677,-10.08,2.98,0.028
179.309415,-13.58,1.334,1.301
179.320153,-18.06,0.508,4.781
179.330891,-21.21,-0.246,6.638
179.341629,-23.03,0.058,7.331
179.352367,-22.26,1.173,7.457
179.363105,-20.58,2.296,6.731
179.373843,-18.97,3.468,6.938
179.384581,-18.41,3.505,10.356
179.395296,-16.45,1.519,15.976
179.406011,-6.58,-1.011,18.231
179.416726,2.94,-0.874,13.422
179.427441,5.04,0.614,11.836
179.438156,7.42,0.014,13.223
179.448871,4.13,-1.656,14.635
179.459586,-0.28,-3.432,19.866
179.470301,-3.01,-5.852,25.126
179.481016,-2.52,-8.803,30.576
179.491731,-1.54,-9.971,29.943
179.502446,0.84,-8.694,26.33
179.513161,4.2,-6.745,19.708
179.523876,5.18,-4.402,11.663
179.534568,2.8,-2.554,4.81
179.54526,-0.7,-1.869,-0.685
179.555952,-4.13,-2.9,-2.502
179.566644,-6.58,-4.193,-2.019
179.577336,-8.96,-5.957,-1.69
179.588028,-10.99,-8.102,-2.424
179.59872,-14,-9.879,-4.443
179.609412,-16.94,-11.452,-6
179.620104,-19.81,-12.052,-7.03
179.630796,-23.66,-11.971,-8.295
179.641488,-30.03,-11.615,-9.511
179.65218,-35.77,-11.915,-11.839
179.662872,-39.76,-12.775,-12.204
179.673538,-42.7,-13.42,-12.175
179.684204,-44.73,-13.919,-12.974
179.69487,-45.36,-15.066,-13.319
179.705536,-44.66,-16.21,-14.089
179.716202,-42.84,-17.167,-15.111
179.726868,-40.88,-18.416,-15.686
179.737534,-38.29,-19.685,-15.341
179.7482,-37.03,-21.652,-14.266
179.758866,-31.78,-24.571,-13.431
179.769532,-25.9,-27.178,-12.753
179.780198,-20.16,-30.337,-9.756
179.790864,-17.64,-34.043,-8.49
179.801539,-16.38,-37.437,-8.591
179.812214,-15.54,-39.975,-7.902
179.822889,-12.88,-43.256,-6.632
179.833564,-10.43,-46.159,-6.291
179.844239,-9.8,-46.483,-6.064
179.854914,-9.59,-46.362,-6.753
179.865589,-12.25,-44.047,-9.401
179.876264,-17.92,-40.778,-10.602
179.886939,-24.71,-39.176,-8.401
179.897614,-27.09,-39.379,-5.238
179.908289,-31.01,-37.895,-5.189
179.918964,-36.68,-35.007,-3.827
179.929628,-39.76,-31.99,-4.006
179.940292,-45.08,-27.579,-6.853
179.950956,-52.29,-23.93,-8.2
179.96162,-58.73,-20.86,-7.872
179.972284,-62.02,-18.516,-9.875
179.982948,-63.7,-15.897,-13.039
179.993612,-62.79,-14.928,-14.503
180.004276,-59.08,-14.576,-14.085
180.01494,-52.92,-12.799,-12.066
180.025604,-44.59,-9.012,-9.763
180.036268,-35.35,-2.041,-8.179
180.046932,-26.67,8.466,-4.478
180.057596,-18.2,23.993,0.179
180.068253,-10.22,44.224,3.96
180.07891,-1.33,68.538,6.754
180.089567,6.16,93.696,10.408
180.100224,11.41,117.519,12.761
180.110881,14.14,137.32,14.546
180.121538,15.26,153.01,19.09
180.132195,15.12,162.394,28.35
180.142852,15.75,164.33,41.557
180.153509,15.89,162.86,54.732
180.164166,15.75,160.437,64.042
180.174823,18.69,158.629,69.055
180.18548,20.51,156.771,68.301
180.196163,21,153.364,62.227
180.206846,21.21,147.135,52.812
180.217529,20.93,137.803,44.059
180.228212,19.25,125.02,36.332
180.238895,15.68,109.4,30.592
180.249578,10.78,94.076,27.605
180.260261,4.97,79.125,25.325
180.270944,-0.28,66.493,23.595
180.281627,-5.04,56.015,21.747
180.29231,-9.87,47.487,19.319
180.302993,-13.23,39.547,16.782
180.313676,-12.81,32.199,13.709
180.324383,-13.79,26.217,10.949
180.33509,-13.93,21.002,8.679
180.345797,-14.84,17.32,4.973
180.356504,-15.75,14.302,2.735
180.367211,-15.47,11.922,2.529
180.377918,-16.03,9.891,4.374
180.388625,-18.27,8.853,7.034
180.399332,-20.51,9.725,9.747
180.410039,-20.93,13.071,11.332
180.420746,-20.51,18.865,11.927
180.431453,-19.88,26.968,13.143
180.44216,-18.2,36.761,14.443
180.452849,-15.68,48.431,15.577
180.463538,-12.67,62.003,17.614
180.474227,-11.9,78.82,19.798
180.484916,-12.04,95.527,22.601
180.495605,-7.84,110.526,23.398
180.506294,-1.96,122.845,25.286
180.516983,1.61,132.023,30.885
180.527672,1.33,137.733,38.004
180.538361,-2.1,139.494,44.143
180.54905,-5.67,137.532,49.626
180.559739,-11.06,132.8,52.275
180.570428,-17.5,126.098,56.424
180.581117,-21.63,118.73,57.897
180.591806,-23.24,111.123,55.489
180.602495,-20.58,103.32,51.768
180.613216,-14.7,96.317,46.339
180.623937,-6.44,90.278,39.872
180.634658,3.29,84.437,31.877
180.645379,12.6,77.985,24.129
180.6561,20.16,69.825,16.79
180.666821,25.69,61.053,9.699
180.677542,28.7,51.969,3.975
180.688263,29.96,43.405,-0.663
180.698984,30.1,35.598,-3.959
180.709705,30.1,29.503,-6.881
180.720426,28.84,25.407,-8.243
180.731142,25.41,23.047,-9.37
180.741858,20.58,21.677,-10.465
180.752574,15.75,21.048,-10.931
180.76329,10.71,21.494,-10.639
180.774006,5.74,21.518,-10.777
180.784722,1.12,22.114,-10.53
180.795438,-2.38,23.355,-10.311
180.806154,-5.25,25.184,-10.202
180.81687,-7.14,26.741,-10.567
180.827586,-7.35,27.946,-10.141
180.838302,-7,27.933,-10.072
180.849018,-7.35,26.778,-9.565
180.859734,-6.93,24.58,-9.598
180.870452,-6.86,21.665,-9.188
180.88117,-7.35,18.124,-9.67
180.891888,-8.33,13.526,-11.405
180.902606,-8.61,9.256,-13.792
180.913324,-9.45,4.6,-15.608
180.924042,-10.22,-0.351,-16.552
180.93476,-10.08,-6.308,-15.826
180.945478,-11.48,-12.016,-10.862
180.956196,-14.35,-16.715,-5.577
180.966914,-18.27,-20.397,0.384
180.977632,-19.25,-21.308,4.346
180.98835,-18.62,-19.443,4.248
180.999083,-18.34,-16.223,4.532
181.009816,-17.85,-12.744,4.15
181.020549,-16.8,-9.504,3.513
181.031282,-15.12,-7.525,4.786
181.042015,-13.09,-6.252,6.432
181.052748,-10.99,-4.354,6.553
181.063481,-7.84,-2.144,6.517
181.074214,-4.48,1.076,6.8
181.084947,-3.5,5.897,5.66
181.09568,-3.08,10.313,4.804
181.106413,-1.54,13.54,5.444
181.117146,-2.38,15.682,6.603
181.127871,-2.94,16.829,8.156
181.138596,-2.1,17.799,9.109
181.149321,-1.61,18.058,10.861
181.160046,-1.54,17.053,12.532
181.170771,-3.71,13.675,13.144
181.181496,-6.3,7.524,16.182
181.192221,-8.05,0.157,17.655
181.202946,-8.96,-5.89,16.874
181.213671,-8.05,-10.363,14.024
181.224396,-8.54,-12.703,9.559
181.235121,-7.35,-12.728,3.655
181.245846,-3.36,-11.261,-3.052
181.256571,0.49,-9.409,-9.122
181.267297,2.73,-8.562,-13.522
181.278023,2.45,-7.167,-14.982
181.288749,1.33,-5.61,-14.139
181.299475,-1.19,-4.118,-12.525
181.310201,-3.5,-2.844,-9.671
181.320927,-5.6,-1.108,-7.019
181.331653,-5.53,-0.167,-4.294
181.342379,-3.64,1.265,0.081
181.353105,-1.54,3.427,2.737
181.363831,-0.14,6.262,4.8
181.374557,0.91,9.867,6.929
181.385283,1.47,15.722,8.388
181.39598,1.12,24.461,9.218
181.406677,-0.56,37.169,8.9
181.417374,-4.41,57.091,7.579
181.428071,-8.61,91.817,0.908
181.438768,-11.97,141.939,-15.275
181.449465,-10.78,192.548,-26.964
181.460162,-9.03,230.69,-19.954
181.470859,-10.43,254.389,-6.819
181.481556,-12.6,266.106,7.757
181.492253,-12.88,267.738,21.478
181.50295,-8.47,261.17,33.328
181.513647,-4.2,249.794,45.04
181.524344,-0.35,235.858,52.321
181.53501,0.42,218.243,53.053
181.545676,-0.77,198.466,48.713
181.556342,-3.43,177.931,41.823
181.567008,-6.16,157.038,33.732
181.577674,-7.98,134.52,25.994
181.58834,-9.38,111.823,21.281
181.599006,-9.87,90.04,19.857
181.609672,-8.19,69.919,20.29
181.620338,-7,53.33,20.847
181.631004,-8.12,40.934,22.216
181.64167,-10.36,32.094,22.363
181.652336,-12.81,25.444,19.769
181.662988,-14.7,22.208,17.563
181.67364,-15.61,20.61,14.936
181.684292,-15.89,20.013,13.48
181.694944,-15.75,20.244,13.379
181.705596,-16.94,21.518,13.816
181.716248,-16.1,23.841,11.525
181.7269,-12.46,25.645,9.355
181.737552,-7.07,25.386,10.02
181.748204,-2.24,23.667,12.916
181.758856,0.56,19.588,17.101
181.769508,1.4,13.827,22.767
181.78016,0.7,4.626,22.14
181.790819,-3.99,-11.38,18.18
181.801478,-8.82,-35.609,14.903
181.812137,-13.23,-65.689,12.158
181.822796,-15.82,-100.194,8.704
181.833455,-17.43,-137.634,6.58
181.844114,-17.99,-174.907,5.126
181.854773,-16.03,-205.86,-0.332
181.865432,-16.38,-236.899,-13.766
181.876091,-20.51,-234.807,-23.206
181.88675,-27.23,-225.02,-29.939
181.897409,-32.69,-210.929,-32.857
181.908068,-35.28,-196.148,-32.027
181.918727,-34.79,-182.75,-28.599
181.929441,-33.32,-170.26,-24.051
181.940155,-30.24,-158.058,-18.274
181.950869,-25.62,-145.844,-14.983
181.961583,-21.14,-132.888,-13.481
181.972297,-16.52,-119.458,-13.458
181.983011,-12.25,-105.152,-14.774
181.993725,-9.8,-92.063,-16.446
182.004439,-9.24,-79.724,-17.896
182.015153,-10.01,-68.329,-16.811
182.025867,-10.29,-58.958,-15.94
182.036581,-10.43,-51.018,-14.611
182.047341,-9.24,-44.096,-12.751
182.058101,-7.7,-39.112,-11.588
182.068861,-5.53,-34.505,-10.704
182.079621,-3.64,-30.852,-10.06
182.090381,-2.03,-27.401,-9.878
182.101141,-0.77,-23.966,-10.41
182.111901,-1.54,-21.387,-10.524
182.122661,-2.59,-18.869,-10.293
182.133421,-4.2,-16.838,-10.93
182.144181,-4.9,-14.413,-11.782
182.154941,-5.18,-12.422,-12.995
182.165701,-5.46,-10.488,-14.288
182.176494,-5.88,-8.927,-15.079
182.187287,-6.86,-7.897,-15.68
182.19808,-8.26,-6.786,-15.128
182.208873,-10.71,-6.522,-12.594
182.219666,-12.67,-6.737,-9.362
182.230459,-14.21,-7.494,-5.871
182.241252,-14,-8.131,-3.068
182.252045,-12.81,-8.086,-1.71
182.262838,-11.48,-8.033,-1.203
182.273631,-8.54,-7.977,-3.539
182.284424,-5.95,-6.939,-6.199
182.295217,-4.06,-5.938,-7.444
182.306073,-4.69,-4.697,-8.434
182.316929,-6.37,-4.235,-8.637
182.327785,-9.1,-4.137,-7.98
182.338641,-10.99,-4.06,-6.402
182.349497,-11.41,-4.364,-4.679
182.360353,-8.4,-5.211,-3.904
182.371209,-4.27,-5.434,-3.446
182.382065,-0.28,-5.033,-3.304
182.392921,3.01,-3.281,-3.564
182.403777,5.74,-1.27,-5.697
182.414633,6.51,-0.479,-6.553
182.425489,6.51,-0.277,-7.299
182.436369,3.43,-1.38,-7.493
182.447249,-0.07,-2.641,-6.792
182.458129,-1.75,-3.987,-8.024
182.469009,-3.29,-4.997,-8.344
182.479889,-3.85,-5.869,-8.64
182.490769,-3.64,-6.968,-9.261
182.501649,-2.03,-7.815,-9.694
182.512529,0.07,-7.653,-9.808
182.523409,1.4,-7.126,-9.573
182.534289,2.24,-6.469,-8.462
182.545169,1.96,-5.796,-6.637
182.556049,0.77,-5.073,-3.88
182.566929,0.63,-4.359,-1.479
182.577833,0.56,-4.132,1.262
182.588737,1.19,-3.39,3.098
182.599641,1.82,-3.174,4.7
182.610545,2.66,-3.032,5.507
182.621449,2.94,-3.126,5.633
182.632353,2.73,-3.454,5.077
182.643257,2.52,-3.62,4.408
182.654161,1.47,-4.326,3.573
182.665065,0.77,-4.841,3.269
182.675969,0.14,-5.685,3.618
182.686873,-1.05,-6.471,4.048
182.697777,-1.47,-6.674,4.794
182.708664,-0.84,-6.333,5.28
182.719551,-0.77,-6.345,5.349
182.730438,0.14,-5.83,5.653
182.741325,0.98,-5.315,5.958
182.752212,0.42,-4.812,6.331
182.763099,-0.77,-3.904,6.42
182.773986,-2.24,-2.752,6.338
182.784873,-3.92,-1.828,5.933
182.79576,-5.81,-0.599,5.012
182.806647,-8.4,1.12,3.325
182.817534,-10.64,2.441,1.07
182.828421,-12.67,3.398,-0.325
182.839308,-13.3,3.994,-1.286
182.850165,-14.84,4.148,-1.756
182.861022,-16.24,3.706,-0.057
182.871879,-17.78,1.837,2.883
182.882736,-18.69,0.418,5.689
182.893593,-17.99,-1.11,6.699
182.90445,-15.47,-2.485,7.239
182.915307,-11.34,-3.053,6.428
182.926164,-7.35,-2.53,4.672
182.937021,-4.55,-1.727,3.747
182.947878,-1.82,-0.807,2.559
182.958735,1.68,0.114,1.371
182.969592,2.66,0.787,0.778
182.980449,2.17,1.367,1.52
182.991258,1.96,0.823,0.572
183.002067,0.98,0.572,1.594
183.012876,2.31,0.823,0.572
183.023685,2.8,1.115,-1.083
183.034494,2.45,1.897,-2.295
183.045303,1.75,2.181,-3.098
183.056112,2.1,2.08,-3.329
183.066921,2.73,1.098,-3.005
183.07773,2.66,-0.082,-3.568
183.088539,1.54,-1.363,-3.155
183.099348,-0.63,-3.48,-3.244
183.110157,-2.17,-5.398,-3.653
183.12095,-3.22,-6.545,-3.997
183.131743,-3.64,-6.894,-4.841
183.142536,-3.85,-7.843,-5.506
183.153329,-3.71,-7.705,-6.69
183.164122,-3.71,-7.547,-7.586
183.174915,-3.78,-7.312,-8.113
183.185708,-4.62,-6.647,-9.062
183.196501,-6.09,-6.149,-9.472
183.207294,-7.49,-5.313,-10.177
183.218087,-9.31,-4.458,-10.595
183.22888,-10.92,-4.227,-10.696
183.239673,-13.86,-4.101,-10.603
183.250432,-15.89,-4,-10.372
183.261191,-16.73,-4.884,-9.391
183.27195,-17.43,-6.181,-8.482
183.282709,-17.5,-7.105,-6.868
183.293468,-18.27,-8.265,-5.935
183.304227,-18.06,-9.473,-4.727
183.314986,-17.71,-10.564,-3.782
183.325745,-17.43,-11.05,-2.233
183.336504,-16.03,-11.541,-0.258
183.347263,-14.63,-12.542,0.987
183.358022,-14.07,-13.036,2.179
183.368781,-14.77,-13.348,4.754
183.37954,-14.28,-14.127,5.541
183.39026,-12.74,-14.703,4.373
183.40098,-11.06,-14.054,3.919
183.4117,-10.22,-13.048,3.457
183.42242,-11.06,-12.598,3.323
183.43314,-10.92,-11.678,3.343
183.44386,-8.26,-12.246,3.74
183.45458,-6.65,-12.181,4.178
183.4653,-4.13,-10.636,3.882
183.47602,-3.15,-7.777,2.183
183.48674,-3.5,-5.332,0.41
183.49746,-4.34,-3.001,-1.524
183.50818,-4.97,-0.949,-3.082
183.518865,-8.19,0.028,-4.189
183.52955,-9.94,0.583,-4.517
183.540235,-9.87,0.851,-7.242
183.55092,-10.29,1.357,-7.295
183.561605,-10.71,1.499,-7.697
183.57229,-11.55,1.341,-8.009
183.582975,-10.43,0.859,-8.094
183.59366,-8.68,0.319,-7.052
183.604345,-6.72,-0.431,-5.62
183.61503,-6.51,-1.286,-3.994
183.625715,-6.09,-2.381,-2.623
183.6364,-5.25,-2.871,-1.857
183.647085,-2.03,-3.374,-1.021
183.65777,0.14,-3.431,0.106
183.668434,-0.07,-3.005,1.318
183.679098,0.35,-2.668,1.022
183.689762,-0.21,-2.23,0.957
183.700426,0.28,-1.638,0.422
183.71109,0.21,-1.018,0.531
183.721754,0.14,-0.726,1.294
183.732418,-0.21,-0.612,1.456
183.743082,-0.56,-0.896,2.259
183.753746,-0.7,-1.244,3.832
183.76441,-0.98,-1.792,5.726
183.775074,-1.96,-2.801,7.822
183.785729,-3.15,-3.632,9.311
183.796384,-5.25,-3.997,10.17
183.807039,-5.88,-4.062,10.941
183.817694,-6.16,-3.559,10.106
183.828349,-5.74,-2.975,10.422
183.839004,-5.67,-2.509,9.793
183.849659,-7.35,-2.606,9.136
183.860314,-9.73,-2.886,8.305
183.870969,-11.83,-2.947,7.441
183.881624,-14,-2.635,6.075
183.892279,-14,-1.78,4.449
183.902934,-14.91,-0.499,1.618
183.913586,-14.77,0.75,-0.223
183.924238,-11.41,2.631,-3.232
183.93489,-6.44,6.248,-7.215
183.945542,-5.81,8.105,-7.669
183.956194,-6.23,9.399,-6.943
183.966846,-7.07,10.858,-5.549
183.977498,-8.05,11.719,-2.767
183.98815,-7.07,12.161,-0.841
183.998802,-5.81,13.15,-0.809
184.009454,-6.02,14.87,-0.079
184.020106,-8.54,16.285,1.166
184.030758,-10.5,15.75,2.99
184.04141,-12.74,12.912,8.603
184.052092,-11.97,8.952,17.358
184.062774,-10.43,4.111,20.627
184.073456,-7.7,0.79,23.738
184.084138,-4.2,-1.529,25.603
184.09482,-2.73,-2.867,24.728
184.105502,-4.06,-2.243,21.995
184.116184,-5.11,-1.413,18.09
184.126866,-5.88,-0.712,13.309
184.137548,-6.16,-0.291,8.905
184.14823,-6.79,-0.668,5
184.158912,-5.81,-0.855,1.626
184.169637,-4.2,-0.454,-0.649
184.180362,-4.06,-0.272,-4.1
184.191087,-4.48,-0.524,-6.703
184.201812,-4.83,-0.565,-8.487
184.212537,-6.09,-1.173,-9.874
184.223262,-7.98,-2.086,-10.745
184.233987,-10.43,-3.7,-11.67
184.244712,-12.6,-5.221,-12.72
184.255437,-14.77,-6.697,-13.62
184.266162,-15.33,-7.605,-13.709
184.276887,-15.47,-8.153,-14.232
184.287612,-14.84,-8.315,-15.327
184.29838,-14.35,-7.573,-17.115
184.309148,-14.98,-6.6,-17.796
184.319916,-15.75,-7.026,-17.8
184.330684,-16.66,-8.173,-18.145
184.341452,-16.94,-10.229,-17.37
184.35222,-16.1,-11.64,-15.415
184.362988,-14.7,-12.962,-14.369
184.373756,-13.09,-13.067,-12.966
184.384524,-11.76,-12.09,-11.656
184.395292,-12.46,-10.37,-9.718
184.40606,-11.83,-8.099,-7.683
184.416828,-10.78,-5.731,-6.199
184.427603,-11.69,-3.435,-4.302
184.438378,-12.46,-1.837,-1.674
184.449153,-12.18,-1.671,-2.214
184.459928,-10.92,-1.805,-2.664
184.470703,-9.31,-2.089,-3.069
184.481478,-10.15,-3.111,-3.321
184.492253,-13.3,-4.789,-1.058
184.503028,-17.15,-7.55,1.299
184.513803,-16.87,-9.926,3.083
184.524578,-14,-10.502,4.332
184.535353,-11.27,-9.533,5.285
184.546128,-8.47,-7.988,4.989
184.556903,-7.07,-6.593,3.529
184.567684,-4.76,-4.586,1.821
184.578465,-4.97,-4.217,0.536
184.589246,-4.62,-4.359,0.937
184.600027,-4.2,-5.369,-1.8
184.610808,-3.57,-5.714,-3.069
184.621589,-3.5,-6.464,-4.054
184.63237,-3.64,-7.348,-5.489
184.643151,-2.31,-7.58,-6.596
184.653932,-0.07,-7.117,-6.799
184.664713,3.29,-7.028,-6.499
184.675494,5.81,-5.694,-6.406
184.686275,6.79,-3.975,-5.676
184.697081,6.65,-2.409,-4.476
184.707887,6.23,-1.363,-3.155
184.718693,5.46,-0.519,-1.087
184.729499,2.8,0.073,0.795
184.740305,-1.26,0.519,2.295
184.751111,-4.69,0.97,3.37
184.761917,-8.61,0.779,4.047
184.772723,-12.04,0.443,5.551
184.783529,-14.56,-0.287,6.062
184.794335,-15.12,-1.337,7.583
184.805141,-15.54,-1.994,8.889
184.815947,-16.38,-1.998,9.315
184.826743,-17.78,-1.807,9.846
184.837539,-18.34,-1.487,11.253
184.848335,-17.57,-0.639,12.895
184.859131,-12.6,0.136,14.951
184.869927,-9.52,1.105,14.695
184.880723,-8.96,2.678,13.835
184.891519,-10.08,3.704,12.452
184.902315,-12.39,4.503,10.745
184.913111,-14.77,4.575,9.123
184.923907,-17.01,4.303,7.44
184.934703,-18.41,3.545,6.098
184.945499,-18.83,3.459,4.164
184.956295,-17.71,3.958,1.338
184.967084,-16.03,5.121,-2.438
184.977873,-12.95,6.69,-6.497
184.988662,-10.36,8.948,-9.226
184.999451,-10.08,9.804,-9.644
185.01024,-11.06,9.062,-9.064
185.021029,-9.24,8.218,-7.507
185.031818,-3.43,7.724,-7.523
185.042607,2.17,7.602,-5.625
185.053396,4.9,7.408,-3.314
185.064185,4.34,6.439,0.567
185.074974,3.36,5.686,4.841
185.085763,2.94,5.232,9.026
185.096552,4.48,4.953,11.82
185.107341,8.4,5.391,12.963
185.11813,12.67,4.819,12.578
185.128919,16.52,4.219,11.548
185.139708,18.34,2.524,10.68
185.150497,18.9,-0.132,10.425
185.161286,17.29,-2.578,9.781
185.172075,14.63,-4.869,8.666
185.182864,10.64,-6.888,6.817
185.193653,7.35,-7.619,4.912
185.204442,4.83,-8.321,2.442
185.215231,1.54,-7.648,-0.567
185.226023,-0.7,-6.866,-2.988
185.236815,-2.94,-6.201,-5.145
185.247607,-3.64,-5.001,-6.71
185.258399,-4.9,-3.934,-7.517
185.269191,-5.74,-3.351,-8.41
185.279983,-5.81,-2.649,-9.565
185.290775,-5.32,-2.175,-9.837
185.301567,-5.6,-1.534,-10.648
185.312359,-6.16,-0.813,-11.516
185.323151,-6.93,-0.63,-12.55
185.333943,-8.82,-0.419,-12.939
185.344735,-11.83,-0.383,-13.146
185.355527,-14.7,-1.34,-12.96
185.366279,-17.78,-2.414,-12.509
185.377031,-19.46,-3.838,-11.694
185.387783,-21.14,-5.772,-10.4
185.398535,-21.35,-7.535,-8.863
185.409287,-20.23,-9.048,-8.348
185.420039,-18.34,-10.106,-7.184
185.430791,-14.63,-10.329,-6.726
185.441543,-11.97,-10.617,-6.705
185.452295,-10.57,-10.978,-5.063
185.463047,-7.77,-11.878,-3.587
185.473799,-5.53,-13.069,-1.665
185.484551,-3.15,-14.659,-0.31
185.49526,-2.73,-16.066,1.219
185.505969,-2.59,-18.409,3.222
185.516678,-0.84,-20.854,3.786
185.527387,2.38,-21.896,4.455
185.538096,6.09,-21.961,4.017
185.548805,7.42,-20.721,3.028
185.559514,5.18,-19.229,1.016
185.570223,3.08,-17.416,-0.796
185.580932,-1.4,-16.456,-2.617
185.591641,-3.99,-16.139,-3.201
185.60235,-6.02,-15.576,-6.798
185.613059,-6.72,-13.667,-9.162
185.623741,-6.65,-11.761,-12.309
185.634423,-6.09,-10.217,-15.022
185.645105,-4.55,-9.592,-16.547
185.655787,-2.87,-8.818,-15.7
185.666469,-2.1,-8.781,-13.49
185.677151,-0.98,-9.535,-10.424
185.687833,-0.7,-10.962,-6.766
185.698515,-0.07,-12.218,-4.074
185.709197,0.63,-12.741,-1.109
185.719879,0.35,-12.939,1.628
185.730561,0.07,-12.25,2.958
185.741243,0.42,-11.499,3.943
185.751924,0.49,-9.776,4.247
185.762605,0.56,-7.919,3.793
185.773286,-0.14,-5.555,3.285
185.783967,-0.7,-3.503,2.936
185.794648,-2.73,-2.498,2.474
185.805329,-6.02,-2.794,2.137
185.81601,-9.8,-2.984,1.606
185.826691,-12.95,-2.928,0.479
185.837372,-14.84,-2.064,-0.79
185.848053,-14.63,-0.455,-3.066
185.858734,-13.37,1.796,-3.735
185.869415,-12.32,4.354,-4.137
185.880069,-12.53,5.231,-3.058
185.890723,-14.21,4.906,-0.414
185.901377,-15.33,4.234,1.386
185.912031,-16.8,3.694,2.428
185.922685,-18.41,4.631,3.162
185.933339,-19.39,6.156,2.578
185.943993,-19.67,8.333,1.114
185.954647,-16.52,10.368,-2.366
185.965301,-14.07,11.605,-2.929
185.975955,-11.76,11.929,-3.156
185.986609,-11.06,10.595,-3.25
185.997263,-11.76,7.704,-1.769
186.007917,-9.38,4.452,0.145
186.018581,-5.95,1.849,-0.811
186.029245,-5.88,0.195,0.105
186.039909,-5.18,-0.373,-0.706
186.050573,-7.42,-0.576,-1.168
186.061237,-12.32,-0.515,0.904
186.071901,-15.89,-0.904,1.902
186.082565,-18.9,-1.273,1.979
186.093229,-17.71,-0.616,0.673
186.103893,-14.84,0.604,-0.604
186.114557,-11.62,1.889,-1.444
186.125221,-8.05,2.611,-2.312
186.135885,-5.18,2.319,-3.074
186.146519,-3.22,1.666,-3.402
186.157153,-0.49,0.421,-3.195
186.167787,0.84,-1.189,-3.337
186.178421,0.56,-3.257,-3.702
186.189055,0.07,-5.609,-4.472
186.199689,-0.49,-8.545,-5.558
186.210323,-0.84,-11.797,-7.269
186.220957,-0.98,-15.69,-9.377
186.231591,-1.26,-20.139,-11.157
186.242225,-0.98,-26.842,-13.049
186.252859,0,-37.073,-14.285
186.263493,0.98,-52.66,-13.763
186.274127,2.45,-74.18,-11.445
186.284765,4.06,-98.821,-8.753
186.295403,5.74,-121.845,-7.979
186.306041,6.58,-141.715,-8.569
186.316679,7.49,-157.473,-10.708
186.327317,7.35,-170.883,-14.067
186.337955,6.3,-181.95,-17.014
186.348593,4.41,-191.941,-17.994
186.359231,-0.21,-199.707,-17.088
186.369869,-5.6,-204.09,-14.805
186.380507,-9.1,-204.775,-11.727
186.391145,-10.29,-202.913,-10.19
186.401783,-10.85,-198.907,-9.128
186.412427,-11.9,-193.615,-6.489
186.423071,-9.66,-187.106,-5.91
186.433715,-7.7,-179.669,-4.955
186.444359,-5.67,-170.926,-3.342
186.455003,-4.06,-162.638,-2.378
186.465647,-3.78,-154.402,-1.921
186.476291,-2.8,-147.022,-1.046
186.486935,-2.52,-141.304,0.389
186.497579,-2.17,-138.262,4.906
186.508223,7.42,-136.81,7.152
186.518867,15.4,-132.322,-0.16
186.529511,21.98,-127.339,-1.414
186.540155,26.25,-125.956,-0.388
186.550818,22.68,-127.185,0.533
186.561481,14.84,-130.712,3.607
186.572144,8.89,-134.928,10.185
186.582807,2.24,-138.144,9.475
186.59347,-4.13,-137.691,5.291
186.604133,-9.17,-134.986,1.645
186.614796,-11.34,-130.823,-3.023
186.625459,-11.76,-125.86,-6.981
186.636122,-12.25,-120.994,-9.18
186.646785,-13.16,-117.154,-8.787
186.657448,-12.81,-112.644,-6.144
186.668111,-13.44,-107.62,-3.197
186.678802,-16.52,-102.502,-0.375
186.689493,-18.34,-96.886,0.829
186.700184,-16.87,-90.71,1.278
186.710875,-11.97,-83.788,1.93
186.721566,-9.03,-75.791,3.34
186.732257,-7.91,-67.564,3.44
186.742948,-8.68,-59.073,1.241
186.753639,-10.71,-50.858,0.202
186.76433,-12.04,-42.955,-0.679
186.775021,-11.9,-34.484,-0.749
186.785712,-9.52,-24.399,0.105
186.796403,-7.56,-14.561,1.555
186.807103,-7.7,-5.685,3.618
186.817803,-10.22,0.889,5.843
186.828503,-12.74,4.393,7.74
186.839203,-14.84,5.715,9.111
186.849903,-16.03,4.855,8.746
186.860603,-17.29,3.067,6.796
186.871303,-18.83,0.013,4.765
186.882003,-20.02,-4.412,1.639
186.892703,-20.86,-9.201,-0.627
186.903403,-21.98,-14.752,-2.601
186.914103,-21.63,-21.151,-3.801
186.924803,-20.09,-26.549,-3.828
186.935503,-20.16,-31.029,-3.41
186.946189,-21.91,-33.629,-4.792
186.956875,-25.41,-32.855,-8.779
186.967561,-28.91,-30.771,-10.117
186.978247,-32.27,-29.104,-9.894
186.988933,-37.52,-27.478,-7.83
186.999619,-40.88,-25.292,-5.313
187.010305,-42.07,-22.331,-3.156
187.020991,-41.02,-19.561,-1.53
187.031677,-37.45,-16.707,-1.595
187.042363,-33.32,-13.005,-2.435
187.053049,-29.54,-9.943,-3.672
187.063735,-25.34,-7.863,-3.377
187.074452,-22.54,-7.235,-2.91
187.085169,-19.81,-8.098,-2.85
187.095886,-16.73,-9.663,-2.841
187.106603,-14.84,-10.811,-4.394
187.11732,-14.07,-10.892,-5.546
187.128037,-15.33,-10.414,-6.243
187.138754,-17.43,-10.297,-6.507
187.149471,-19.46,-10.321,-7.577
187.160188,-22.33,-10.285,-7.784
187.170905,-23.17,-9.453,-9.272
187.181622,-23.03,-7.483,-10.773
187.192339,-22.89,-5.091,-11.844
187.203042,-22.12,-2.731,-11.925
187.213745,-20.79,-0.74,-10.721
187.224448,-20.44,0.416,-8.812
187.235151,-20.86,0.737,-6.196
187.245854,-20.65,0.47,-4.68
187.256557,-19.67,0.446,-3.333
187.26726,-18.97,1.074,-2.867
187.277963,-17.85,2.201,-5.227
187.288666,-16.45,3.446,-7.851
187.299369,-15.96,5.035,-10.414
187.310072,-17.78,6.409,-12.162
187.320775,-20.51,6.815,-12.446
187.331478,-29.26,7.002,-10.28
187.342173,-37.94,7.399,-9.713
187.352868,-45.01,5.972,-8.472
187.363563,-49.35,4.334,-3.216
187.374258,-53.69,3.779,-1.679
187.384953,-57.82,4.343,-1.651
187.395648,-59.01,6.038,-1.992
187.406343,-58.1,6.881,-2.341
187.417038,-53.9,6.415,-0.504
187.427733,-46.27,3.407,3.657
187.438428,-41.02,-0.879,6.598
187.449123,-38.71,-4.764,4.846
187.459818,-35.28,-7.44,3.095
187.470516,-32.48,-10.778,0.658
187.481214,-29.96,-14.436,-0.768
187.491912,-26.18,-17.319,-1.348
187.50261,-23.1,-20.583,-1.781
187.513308,-21.56,-22.222,-2.568
187.524006,-21.63,-22.802,-3.31
187.534704,-21.49,-23.207,-3.026
187.545402,-22.47,-24.399,-2.312
187.5561,-21.42,-25.936,-1.659
187.566798,-20.58,-26.549,-5.037
187.577496,-20.44,-25.475,-7.904
187.588194,-19.67,-25.426,-6.971
187.598912,-21.56,-27.372,-4.4
187.60963,-24.29,-30.693,-3.706
187.620348,-24.08,-33.106,-4.131
187.631066,-21.21,-33.199,-6.423
187.641784,-16.1,-30.669,-11.094
187.652502,-7.21,-27.767,-15.06
187.66322,3.85,-25.464,-18.848
187.673938,13.23,-22.334,-20.073
187.684656,21.07,-19.864,-18.358
187.695374,25.76,-17.427,-16.862
187.706092,27.09,-14.174,-15.152
187.71681,24.36,-10.845,-11.863
187.727525,19.11,-8.804,-7.31
187.73824,14.84,-6.991,-3.081
187.748955,12.67,-5.576,-1.836
187.75967,13.37,-3.046,-5.299
187.770385,14.77,-0.654,-11.204
187.7811,16.03,0.432,-15.348
187.791815,16.17,-0.862,-17.282
187.80253,14.77,-3.546,-15.765
187.813245,12.25,-6.271,-12.407
187.82396,8.68,-8.334,-9.573
187.834675,6.23,-8.861,-8.599
187.84539,3.08,-8.367,-8.583
187.856105,-0.84,-7.422,-8.701
187.866819,-3.08,-6.639,-7.497
187.877533,-7.56,-6.18,-4.857
187.888247,-12.32,-5.199,-0.348
187.898961,-17.01,-2.826,4.335
187.909675,-18.76,0.139,8.483
187.920389,-18.97,5.273,10.81
187.931103,-18.69,10.374,11.709
187.941817,-17.92,15.435,13.241
187.952531,-17.08,19.417,14.441
187.963245,-16.17,23.01,15.43
187.973959,-16.24,26.307,16.082
187.984673,-20.16,27.078,18.564
187.995368,-23.1,24.674,23.329
188.006063,-21.56,24.391,28.965
188.016758,-17.57,27.465,33.701
188.027453,-15.47,33.877,40.874
188.038148,-15.68,42.515,49.931
188.048843,-12.88,56.141,56.101
188.059538,-7.21,72.041,61.464
188.070233,-1.19,92.41,60.435
188.080928,3.22,115.254,54.228
188.091623,3.92,136.445,46.52
188.102318,-0.07,153.985,37.743
188.113013,-5.04,167.524,31.103
188.123708,-8.33,179.445,25.173
188.134431,-9.8,190.251,19.117
188.145154,-9.17,198.433,15.442
188.155877,-6.72,204.005,15.287
188.1666,-2.38,206.345,16.126
188.177323,1.68,205.441,18.028
188.188046,3.85,200.417,19.915
188.198769,1.26,192.498,22.499
188.209492,-5.18,182.211,26.016
188.220215,-14.14,169.231,29.485
188.230938,-22.05,155.327,34.567
188.241661,-28.07,140.389,40.676
188.252384,-32.27,125.999,44.891
188.263086,-36.33,114.365,43.551
188.273788,-39.69,106.449,39.667
188.28449,-40.53,101.193,33.196
188.295192,-41.09,97.68,26.109
188.305894,-38.71,94.5,19.151
188.316596,-35.91,90.047,12.963
188.327298,-32.34,85.156,9.258
188.338,-28.7,79.548,7.203
188.348702,-26.39,73.64,6.445
188.359404,-24.57,67.472,5.144
188.370106,-21.42,60.878,3.84
188.380808,-15.89,54.516,4.85
188.39151,-9.52,47.972,6.895
188.402203,-3.78,40.389,9.183
188.412896,0.49,33.245,12.615
188.423589,0.77,26.112,15.977
188.434282,0,19.791,18.772
188.444975,0.07,15.14,21.364
188.455668,-2.17,12.711,22.641
188.466361,-5.53,12.35,20.658
188.477054,-6.79,13.939,16.887
188.487747,-5.81,17.134,14.892
188.49844,-3.71,20.93,12.718
188.509133,2.17,26.472,7.084
188.519826,9.31,33.701,1.962
188.530513,14.28,40.047,-0.971
188.5412,19.74,44.827,-3.895
188.551887,26.25,47.978,-7.249
188.562574,33.25,47.686,-6.803
188.573261,37.38,42.164,-2.09
188.583948,36.26,34.192,4.821
188.594635,33.46,26.075,11.35
188.605322,31.29,19.118,16.947
188.616009,31.01,14.516,20.472
188.626696,33.11,12.006,21.806
188.637383,36.26,11.28,20.683
188.64807,39.2,11.352,17.853
188.658757,40.53,11.77,16.291
188.669445,36.19,13.096,14.819
188.680133,27.37,15.922,14.109
188.690821,20.58,19.308,12.645
188.701509,18.13,22.949,10.941
188.712197,19.6,25.791,10.945
188.722885,21.42,26.963,11.152
188.733573,21.49,26.509,11.711
188.744261,18.83,24.985,13.504
188.754949,13.3,22.856,15.9
188.765637,6.37,20.91,17.263
188.776325,0.42,19.385,17.847
188.787013,-3.29,18.773,16.886
188.797715,-4.27,19.782,14.79
188.808417,-6.37,21.217,12.697
188.819119,-9.45,22.75,11.262
188.829821,-12.81,23.622,11.557
188.840523,-15.19,23.735,11.72
188.851225,-16.24,23.926,13.459
188.861927,-16.73,22.864,15.049
188.872629,-15.96,22.057,16.399
188.883331,-13.51,21.125,17.657
188.894033,-10.22,20.338,18.086
188.904735,-6.02,20.419,18.03
188.915437,-1.4,21.137,17.588
188.926119,1.33,22.516,16.622
188.936801,2.59,24.985,14.712
188.947483,3.78,28.812,11.549
188.958165,3.5,33.451,9.026
188.968847,1.82,37.376,7.728
188.979529,1.33,40.352,6.973
188.990211,-2.24,43.771,6.936
189.000893,-10.57,46.954,8.635
189.011575,-16.1,49.663,11.813
189.022257,-13.37,48.665,7.799
189.032939,-6.37,43.475,13.85
189.043621,-1.61,34.093,20.299
189.054303,3.22,26.231,22.964
189.064985,11.69,21.856,23.187
189.075645,19.81,19.946,21.927
189.086305,19.74,21.498,19.57
189.096965,15.05,24.194,14.359
189.107625,7.7,27.283,8.933
189.118285,2.38,29.055,6.545
189.128945,-2.17,29.971,4.574
189.139605,-5.18,29.78,4.043
189.150265,-6.86,28.596,3.905
189.160925,-9.03,26.208,4.55
189.171585,-10.29,23.131,6.282
189.182245,-14.28,19.327,8.099
189.192905,-20.58,14.283,9.698
189.203564,-26.11,9.401,9.974
189.214223,-29.4,6.388,8.519
189.224882,-32.34,5.982,3.969
189.235541,-34.3,6.853,-1.777
189.2462,-35.7,8.421,-7.045
189.256859,-36.05,9.856,-11.554
189.267518,-36.12,11.271,-15.143
189.278177,-35.42,12.386,-16.226
189.288836,-34.09,13.667,-16.64
189.299495,-31.64,14.198,-16.83
189.310154,-27.72,14.588,-15.411
189.320813,-23.31,13.858,-13.692
189.331459,-17.43,11.774,-12.353
189.342105,-9.52,8.847,-10.666
189.352751,-2.17,5.518,-9.12
189.363397,4.55,2.083,-7.38
189.374043,8.47,-1.469,-5.377
189.384689,9.94,-6.148,-2.221
189.395335,11.76,-11.593,1.652
189.405981,12.39,-16.726,6.575
189.416627,8.4,-21.587,13.182
189.427273,2.8,-26.408,17.947
189.437919,-3.5,-29.331,16.792
189.448565,-8.33,-29.206,15.677
189.459211,-14.07,-27.28,12.818
189.469874,-20.23,-24.374,7.217
189.480537,-22.75,-18.933,-1.064
189.4912,-19.67,-10.597,-6.418
189.501863,-14.98,-2.406,-13.361
189.512526,-8.68,4.997,-19.874
189.523189,-1.05,10.767,-25.183
189.533852,4.76,12.376,-26.25
189.544515,6.16,9.79,-20.451
189.555178,5.39,4.698,-13.743
189.565841,6.58,-0.204,-6.504
189.576504,5.81,-4.817,-0.494
189.587167,5.46,-7.834,3.31
189.597853,5.53,-9.695,5.399
189.608539,5.95,-10.972,6.595
189.619225,4.55,-11.673,7.751
189.629911,3.43,-12.557,8.732
189.640597,0.77,-13.798,9.722
189.651283,-1.75,-14.994,10.861
189.661969,-5.25,-16.182,12.358
189.672655,-8.4,-16.778,13.319
189.683341,-11.27,-16.417,14.093
189.694027,-13.16,-15.216,13.736
189.704713,-14.07,-13.205,12.812
189.715399,-14.91,-11.612,11.031
189.726099,-18.41,-10.238,9.283
189.736799,-26.88,-11.053,9.068
189.747499,-35.28,-13.282,13.651
189.758199,-44.45,-15.934,16.595
189.768899,-48.3,-16.518,16.279
189.779599,-46.69,-14.803,15.018
189.790299,-45.15,-11.47,11.838
189.800999,-42.7,-7.302,9.161
189.811699,-40.46,-4.504,6.598
189.822399,-38.85,-2.12,6.379
189.833099,-38.99,-0.299,9.756
189.843799,-39.41,2.305,11.921
189.854499,-38.08,4.896,14.155
189.865207,-34.65,6.835,16.061
189.875915,-30.31,7.622,16.839
189.886623,-23.38,7.686,16.069
189.897331,-15.54,7.37,14.236
189.908039,-8.61,7.062,12.76
189.918747,-1.89,6.425,11.937
189.929455,6.02,6.453,11.373
189.940163,10.08,6.911,12.805
189.950871,5.18,5.679,15.36
189.961579,-4.06,2.93,20.064
189.972287,-12.74,-0.414,25.729
189.982995,-19.11,-3.848,28.677
189.993703,-20.86,-6.212,30.393
190.004449,-16.17,-9.038,32.311
190.015195,-8.61,-11.913,32.089
190.025941,-0.35,-12.996,30.974
190.036687,6.86,-11.399,27.559
190.047433,10.78,-7.868,22.851
190.058179,11.06,-3.85,16.594
190.068925,9.66,0.212,10.486
190.079671,6.16,3.066,4.379
190.090417,3.01,4.61,-0.751
190.101163,0.91,4.492,-5.321
190.111909,0.7,4.269,-9.696
190.12268,2.31,3.717,-13.418
190.133451,4.48,3.075,-16.233
190.144222,4.62,2.329,-18.852
190.154993,3.99,1.023,-19.509
190.165764,2.73,-0.866,-19.273
190.176535,1.54,-3.226,-17.983
190.187306,0.42,-4.755,-16.974
190.198077,-0.56,-6.146,-17.148
190.208848,-3.15,-7.829,-18.084
190.219619,-7.14,-9.787,-17.861
190.23039,-11.2,-11.64,-16.624
190.241161,-15.82,-12.824,-16.762
190.251932,-20.37,-12.772,-17.463
190.26268,-21.91,-12.216,-20.208
190.273428,-20.93,-10.441,-23.023
190.284176,-18.69,-7.818,-26.612
190.294924,-15.89,-5.539,-30.262
190.305672,-13.51,-4.157,-32.861
190.31642,-10.85,-3.468,-33.948
190.327168,-8.33,-4.433,-34.118
190.337916,-4.9,-5.523,-30.756
190.348664,-2.03,-7.299,-26.734
190.359412,0.63,-9.622,-22.025
190.37016,0.84,-11.811,-18.076
190.380908,0.07,-12.548,-14.296
190.391656,-1.26,-12.021,-11.644
190.402391,-0.07,-11.262,-11.511
190.413126,3.29,-10.65,-11.758
190.423861,4.48,-11.392,-11.178
190.434596,5.67,-14.271,-12.183
190.445331,7,-18.306,-12.681
190.456066,6.86,-22.632,-10.317
190.466801,3.78,-27.75,-9.513
190.477536,0.21,-31.46,-9.03
190.488271,-3.15,-34.817,-6.921
190.499006,-4.27,-37.992,-5.846
190.509741,-4.48,-40.153,-3.668
190.520476,-6.09,-40.656,-1.624
190.531201,-11.34,-38.843,-2.229
190.541926,-12.32,-35.515,-8.608
190.552651,-10.71,-31.064,-16.921
190.563376,-7.84,-25.927,-24.687
190.574101,-2.1,-21.249,-32.676
190.584826,4.41,-16.781,-37.859
190.595551,8.68,-14.603,-39.323
190.606276,10.78,-14.104,-34.899
190.617001,12.6,-13.945,-27.337
190.627726,13.65,-13.607,-17.966
190.638451,14,-13.229,-9.227
190.649176,15.61,-12.263,-1.807
190.659901,16.45,-11.061,3.878
190.670614,17.36,-10.051,7.823
190.681327,17.57,-8.915,10.654
190.69204,16.59,-7.796,12.77
190.702753,14.14,-7.694,14.21
190.713466,11.34,-8.529,16.124
190.724179,5.18,-9.519,18.508
190.734892,-2.8,-10.743,20.212
190.745605,-12.18,-11.469,21.505
190.756318,-17.85,-12.206,22.868
190.767031,-18.34,-12.389,22.693
190.777744,-15.75,-11.955,21.846
190.788457,-12.81,-11.335,19.539
190.799181,-11.62,-10.532,17.405
190.809905,-11.48,-9.495,14.745
190.820629,-11.41,-7.342,13.419
190.831353,-11.13,-4.876,11.935
190.842077,-12.18,-2.257,11.188
190.852801,-13.02,-0.14,11.277
190.863525,-12.46,2.39,10.23
190.874249,-10.92,4.295,8.292
190.884973,-7.35,6.408,6.39
190.895697,-3.36,7.669,4.48
190.906421,-2.17,8.244,3.231
190.917145,-2.31,8.179,2.793
190.927867,-4.9,8.232,4.508
190.938589,-7.07,8.395,5.603
190.949311,-5.81,9.802,5.282
190.960033,-5.46,12.255,7.492
190.970755,-11.69,13.699,9.381
190.981477,-19.53,13.217,15.338
190.992199,-14.77,10.735,12.484
191.002921,-5.74,8.55,16.008
191.013643,-4.41,4.776,23.303
191.024365,-11.27,-0.199,26.122
191.035087,-16.52,-4.476,34.253
191.045809,-11.9,-5.326,42.704
191.056531,-8.4,-4.032,45.846
191.067253,-1.54,-0.01,46.413
191.077975,4.2,6.53,41.169
191.088693,7.21,14.42,34.315
191.099411,5.25,19.946,27.969
191.110129,0.63,22.626,22.044
191.120847,-4.2,22.366,16.667
191.131565,-8.05,20.925,11.935
191.142283,-10.78,18.597,8.61
191.153001,-12.46,15.815,5.845
191.163719,-13.16,13.374,3.567
191.174437,-12.46,12.4,1.831
191.185155,-11.06,11.942,0.4
191.195873,-8.75,11.95,-1.66
191.206604,-7.63,11.941,-3.225
191.217335,-6.72,11.499,-6.36
191.228066,-7,10.594,-11.708
191.238797,-6.58,9.077,-15.601
191.249528,-7.21,6.672,-16.878
191.260259,-10.71,4.036,-16.845
191.27099,-14.56,1.981,-16.07
191.281721,-16.45,0.703,-14.874
191.292452,-15.89,0.452,-15.06
191.303183,-13.09,1.352,-16.536
191.313914,-11.41,2.722,-17.859
191.324645,-10.71,3.728,-19.529
191.335339,-11.13,4.506,-20.316
191.346033,-11.41,3.286,-19.039
191.356727,-10.43,1.936,-17.429
191.367421,-9.17,0.72,-15.369
191.378115,-7.35,-0.172,-12.327
191.388809,-5.81,-0.816,-8.674
191.399503,-3.85,-1.667,-5.056
191.410197,-1.61,-2.263,-1.678
191.420891,-0.84,-3.544,1.152
191.431585,-0.28,-4.148,-0.66
191.442279,1.12,-3.269,-3.633
191.452973,-0.63,-3.744,-5.778
191.463667,-6.79,-6.765,-6.382
191.474346,-15.33,-10.414,-5.035
191.485025,-21.84,-14.197,-4.138
191.495704,-23.38,-15.71,-6.04
191.506383,-19.04,-14.356,-9.284
191.517062,-12.6,-12.13,-13.441
191.527741,-5.25,-8.92,-19.556
191.53842,3.43,-6.37,-25.148
191.549099,9.8,-4.169,-30.375
191.559778,15.4,-3.634,-33.409
191.570457,19.74,-4.267,-34.657
191.581136,22.89,-6.204,-31.729
191.591815,24.57,-9.886,-26.976
191.602485,27.16,-13.753,-20.764
191.613155,30.38,-16.984,-13.728
191.623825,34.51,-19.53,-7.353
191.634495,38.15,-21.622,-2.746
191.645165,40.81,-21.755,0.429
191.655835,37.94,-21.11,4.025
191.666505,31.85,-20.306,7.934
191.677175,24.99,-18.83,11.251
191.687845,18.34,-16.449,13.874
191.698515,12.88,-13.931,15.314
191.709185,9.31,-10.784,16.011
191.719855,6.72,-9.377,16.898
191.730507,2.8,-10.224,17.673
191.741159,-1.47,-11.777,17.612
191.751811,-4.48,-12.682,17.098
191.762463,-6.79,-13.169,15.022
191.773115,-7.98,-13.112,11.477
191.783767,-9.03,-12.643,6.798
191.794419,-11.48,-12.529,3.335
191.805071,-15.54,-13.373,1.267
191.815723,-19.53,-14.687,0.253
191.826375,-22.19,-16.232,1.758
191.837027,-24.01,-17.663,3.425
191.847679,-23.87,-17.983,4.435
191.858331,-22.33,-17.44,5.383
191.868983,-20.3,-15.725,5.33
191.879635,-19.11,-12.744,4.15
191.890287,-18.41,-10.048,2.564
191.900939,-19.11,-7.599,1.574
191.911591,-20.86,-6.313,1.943
191.922243,-21.35,-5.782,2.961
191.932895,-19.11,-5.125,4.072
191.943547,-14.84,-4.204,6.509
191.954199,-10.01,-2.93,9.363
191.964851,-5.6,-1.097,11.464
191.975503,-3.08,1.186,12.222
191.986155,-2.38,3.765,12.108
191.996829,-3.57,5.954,9.366
192.007503,-5.53,7.73,6.552
192.018177,-7.21,9.145,6.588
192.028851,-8.4,9.364,7.764
192.039525,-8.33,9.121,9.143
192.050199,-5.11,9.823,10.404
192.060873,-0.77,10.017,11.718
192.071547,2.8,10.021,10.083
192.082221,5.39,10.058,8.668
192.092895,5.11,9.855,6.998
192.103569,3.99,10.102,3.985
192.114243,2.52,9.363,0.514
192.124925,2.1,8.596,-2.394
192.135607,1.82,6.678,-5.22
192.146289,0.63,4.739,-8.334
192.156971,-1.75,2.569,-10.138
192.167653,-4.62,0.615,-11.549
192.178335,-7.84,-1.498,-12.063
192.189017,-10.71,-2.743,-11.856
192.199699,-13.44,-3.408,-12.116
192.210381,-15.89,-3.436,-12.761
192.221063,-18.34,-2.763,-13.353
192.231745,-20.3,-1.774,-14.529
192.242427,-21.77,-0.043,-16.285
192.253109,-22.75,2.171,-19.164
192.263815,-21.84,4.275,-21.423
192.274521,-23.59,6.862,-23.597
192.285227,-29.19,9.039,-26.269
192.295933,-34.93,9.485,-24.769
192.306639,-40.6,8.468,-20.613
192.317345,-44.8,6.06,-16.63
192.328051,-46.9,4.114,-12.851
192.338757,-46.41,1.896,-10.754
192.349463,-44.03,0.988,-10.843
192.360169,-38.01,1.288,-12.141
192.370875,-31.57,1.77,-12.056
192.381581,-27.44,2.281,-11.326
192.39228,-23.45,2.221,-9.773
192.402979,-21.21,1.179,-7.895
192.413678,-20.65,-0.97,-4.578
192.424377,-19.46,-3.512,-2.254
192.435076,-16.59,-5.478,-1.179
192.445775,-13.37,-7.344,0.127
192.456474,-10.78,-9.72,0.703
192.467173,-8.54,-12.132,1.486
192.477872,-5.74,-14.512,2.488
192.488571,-3.99,-17.132,4.443
192.49927,-0.77,-19.017,5.461
192.509969,3.78,-19.621,7.273
192.520668,7.35,-19.183,9.625
192.531384,8.82,-20.038,11.251
192.5421,6.65,-20.439,13.526
192.552816,1.96,-21.165,13.611
192.563532,-4.34,-21.478,12.561
192.574248,-8.12,-20.792,11.9
192.584964,-11.69,-19.994,6.568
192.59568,-10.5,-18.47,2.359
192.606396,-6.79,-16.723,-2.309
192.617112,-1.05,-14.238,-7.131
192.627828,7.28,-11.639,-10.582
192.638544,15.26,-10.447,-12.504
192.64926,22.33,-9.884,-12.476
192.659963,27.79,-8.764,-11.568
192.670666,29.54,-7.657,-9.382
192.681369,29.12,-5.796,-6.637
192.692072,27.51,-3.22,-3.909
192.702775,26.04,-0.742,-0.628
192.713478,22.47,1.979,1.273
192.724181,18.9,4.915,2.359
192.734884,14.91,7.377,3.717
192.745587,12.25,8.905,5.124
192.75629,9.45,10.426,6.174
192.766993,7,10.889,7.18
192.777696,5.74,10.297,7.715
192.788399,2.8,9.814,8.839
192.79912,-2.59,9.814,10.047
192.809841,-8.54,9.482,11.126
192.820562,-11.97,9.961,12.845
192.831283,-16.73,10.513,14.15
192.842004,-18.13,11.51,15.748
192.852725,-16.17,12.147,16.571
192.863446,-13.58,12.974,16.717
192.874167,-11.48,13.761,16.287
192.884888,-9.52,14.795,15.261
192.895609,-8.12,14.588,14.016
192.90633,-5.81,14.401,11.851
192.917051,-2.87,14.676,9.483
192.927764,-0.28,14.968,6.62
192.938477,3.5,15.32,4.621
192.94919,6.09,15.511,3.943
192.959903,8.12,15.701,3.266
192.970616,10.5,15.726,3.128
192.981329,12.11,15.357,3.205
192.992042,11.62,14.886,4.26
193.002755,10.78,13.804,6.77
193.013468,10.29,11.765,9.467
193.024181,11.48,9.916,10.278
193.034894,10.15,7.134,12.346
193.045607,6.72,4.73,14.695
193.05632,1.19,2.52,15.94
193.067031,-3.99,0.87,17.639
193.077742,-8.54,-0.476,20.032
193.088453,-10.29,-2.134,22.583
193.099164,-10.36,-3.375,21.155
193.109875,-7.77,-3.545,20.912
193.120586,-4.06,-3.384,17.173
193.131297,0.21,-2.581,13.832
193.142008,4.2,-1.535,10.32
193.152719,8.68,-1.066,5.641
193.16343,11.55,-1.233,1.346
193.174141,12.53,-2.296,-3.106
193.184852,11.69,-3.217,-6.751
193.195539,11.06,-4.515,-9.468
193.206226,9.38,-5.026,-12.614
193.216913,7.77,-5.298,-15.506
193.2276,5.6,-5.01,-17.943
193.238287,1.82,-4.934,-19.99
193.248974,-2.59,-5.319,-21.835
193.259661,-7.28,-5.222,-22.387
193.270348,-11.13,-5.088,-21.937
193.281035,-15.12,-4.703,-22.509
193.291722,-17.71,-4.423,-22.886
193.302409,-18.41,-3.787,-23.271
193.313096,-18.55,-3.43,-23.279
193.323783,-17.5,-2.963,-23.908
193.334484,-15.61,-2.728,-24.435
193.345185,-12.88,-3.235,-24.382
193.355886,-11.34,-3.58,-24.443
193.366587,-10.99,-4.099,-23.113
193.377288,-11.41,-4.898,-22.614
193.387989,-11.62,-5.911,-21.3
193.39869,-10.71,-7.131,-20.023
193.409391,-9.31,-8.482,-18.413
193.420092,-7.7,-9.734,-17.354
193.430793,-5.46,-10.221,-17.013
193.441494,-2.8,-9.827,-16.02
193.452195,0.56,-9.6,-14.487
193.462867,2.73,-9.422,-12.679
193.473539,3.64,-9.494,-9.848
193.484211,4.55,-9.676,-8.814
193.494883,4.9,-10.52,-7.257
193.505555,6.02,-11.489,-5.793
193.516227,6.09,-12.535,-4.698
193.526899,5.25,-13.447,-3.153
193.537571,5.25,-14.29,-2.804
193.548243,5.74,-15.458,-3.436
193.558915,6.51,-15.896,-3.372
193.569587,6.44,-16.01,-3.534
193.580259,5.25,-15.004,-2.788
193.590931,3.78,-13.759,-4.203
193.601603,0.28,-11.845,-5.785
193.612275,-1.33,-10.053,-7.886
193.622947,-3.57,-9.158,-10.144
193.633619,-3.64,-8.643,-11.049
193.644291,-2.66,-8.967,-12.03
193.654963,-0.7,-9.024,-10.903
193.665635,-0.35,-10.131,-9.463
193.676307,-0.35,-11.489,-7.001
193.686979,-0.14,-13.066,-4.507
193.697651,0.56,-14.262,-0.951
193.708323,0.77,-15.575,2.869
193.718995,1.54,-15.96,5.858
193.729644,1.82,-16.3,8.996
193.740293,1.89,-15.975,11.186
193.750942,1.82,-15.711,12.512
193.761591,2.45,-15.022,13.842
193.77224,2.94,-14.653,14.973
193.782889,3.78,-13.436,15.33
193.793538,4.9,-12.52,15.776
193.804187,5.18,-11.433,16.465
193.814836,3.71,-10.642,16.818
193.825485,1.89,-9.94,16.87
193.836134,-0.35,-9.203,16.716
193.846783,-2.03,-8.704,16.306
193.857432,-2.8,-8.031,15.714
193.868091,-3.71,-7.548,15.799
193.87875,-2.45,-7.074,15.528
193.889409,-1.33,-6.883,14.85
193.900068,0.7,-6.656,15.175
193.910727,1.54,-6.871,14.781
193.921386,1.75,-6.786,14.299
193.932045,1.05,-6.308,12.393
193.942704,0.49,-5.842,10.556
193.953363,-0.49,-5.246,8.386
193.964022,-0.63,-4.176,5.945
193.974681,-1.12,-3.11,3.93
193.98534,-1.54,-1.764,2.745
193.99602,-2.8,-0.62,2.307
194.0067,-3.01,0.981,0.884
194.01738,-3.64,2.928,-0.479
194.02806,-5.95,5.369,-0.617
194.03874,-9.73,6.849,-0.143
194.04942,-13.79,8.106,0.79
194.0601,-18.13,9.169,1.617
194.07078,-22.26,9.631,1.414
194.08146,-24.78,10.397,0.696
194.09214,-26.6,10.981,-0.196
194.10282,-28.14,10.953,0.367
194.1135,-29.82,10.101,2.776
194.12419,-31.85,8.156,6.556
194.13488,-32.41,5.642,9.524
194.14557,-31.22,1.794,11.192
194.15626,-26.18,-1.332,13.199
194.16695,-21.7,-3.161,11.882
194.17764,-18.2,-4.572,11.419
194.18833,-15.61,-6.292,10.69
194.19902,-13.51,-7.553,8.975
194.20971,-11.97,-8.555,6.595
194.2204,-10.78,-9.379,3.606
194.23109,-11.13,-11.09,-0.392
194.24178,-11.97,-12.409,-4.605
194.25247,-14.21,-14.015,-8.797
194.263143,-16.73,-15.638,-12.495
194.273816,-19.88,-17.37,-15.573
194.284489,-22.4,-19.114,-18.581
194.295162,-25.06,-20.939,-21.533
194.305835,-27.58,-21.13,-24.481
194.316508,-29.26,-21.321,-27.429
194.327181,-29.75,-21.5,-29.238
194.337854,-29.68,-21.674,-30.263
194.348527,-29.89,-22.217,-30.004
194.3592,-28.91,-23.016,-29.505
194.369873,-26.39,-25.396,-28.503
194.380546,-27.16,-28.608,-27.221
194.391219,-36.19,-33.291,-24.848
194.401892,-48.65,-38.079,-21.073
194.412565,-56.63,-41.785,-18.598
194.423238,-59.08,-45.564,-16.919
194.433911,-58.59,-48.99,-14.822
194.444584,-57.05,-51.967,-14.068
194.455257,-54.32,-53.763,-13.958
194.46593,-51.8,-54.781,-12.218
194.476603,-49.28,-55.182,-8.735
194.487276,-47.32,-54.788,-5.325
194.497949,-43.82,-52.845,-2.636
194.508622,-39.97,-50.181,-0.816
194.519295,-35.21,-47.581,0.566
194.529996,-28.84,-45.116,0.29
194.540697,-21.63,-42.622,-1.758
194.551398,-14.91,-39.192,-5.489
194.562099,-11.13,-36.107,-8.073
194.5728,-15.4,-33.836,-7.246
194.583501,-24.64,-31.954,-5.421
194.594202,-32.27,-29.046,-3.771
194.604903,-38.29,-24.829,-3.099
194.615604,-40.39,-19.886,-3.72
194.626305,-39.2,-14.765,-7.366
194.637006,-35.7,-9.389,-12.46
194.647707,-31.15,-5.238,-18.267
194.658409,-27.58,-1.244,-23.178
194.669111,-24.57,1.708,-26.212
194.679813,-22.26,3.771,-27.838
194.690515,-19.25,4.412,-26.232
194.701217,-15.89,4.356,-21.48
194.711919,-11.83,3.728,-15.904
194.722621,-5.53,3.774,-10.921
194.733323,1.47,4.691,-6.85
194.744025,9.03,7.071,-3.018
194.754727,16.17,9.185,1.122
194.765429,22.47,11.484,5.01
194.776131,26.32,14.157,9.604
194.786833,25.55,16.603,13.874
194.797557,17.85,19.256,19.388
194.808281,7.84,21.317,25.438
194.819005,1.26,23.183,30.174
194.829729,-5.67,25.162,32.655
194.840453,-9.52,27.55,34.427
194.851177,-11.9,29.517,34.561
194.861901,-12.95,31.346,33.461
194.872625,-11.76,33.174,31.154
194.883349,-7.07,34.998,28.064
194.894073,-1.82,36.665,24.661
194.904797,1.19,38.927,20.298
194.915521,1.89,40.864,16.162
194.92624,0.77,41.241,14.025
194.936959,-0.91,39.976,13.944
194.947678,-1.26,36.745,16.146
194.958397,-0.56,31.98,19.784
194.969116,1.19,26.113,22.019
194.979835,6.37,20.554,23.313
194.990554,13.09,17.062,22.556
195.001273,20.16,15.452,18.789
195.011992,20.37,16.457,13.493
195.022711,14.14,19.234,7.017
195.03343,7.42,22.267,3.926
195.044149,-1.19,24.091,3.253
195.054868,-10.64,24.696,5.065
195.065594,-19.81,24.733,8.484
195.07632,-24.71,23.967,12.827
195.087046,-23.59,22.13,17.194
195.097772,-17.29,20.922,19.611
195.108498,-9.94,20.124,22.527
195.119224,-2.8,20.084,24.368
195.12995,6.02,21.641,22.794
195.140676,14.49,23.575,22.709
195.151402,21.07,25.963,22.064
195.162128,22.61,29.361,18.114
195.172854,23.94,32.823,13.393
195.18358,25.06,35.912,7.967
195.194289,24.99,38,3.786
195.204998,21,39.135,0.574
195.215707,11.48,39.195,-2.187
195.226416,-0.49,36.3,-2.698
195.237125,-12.46,30.372,-0.118
195.247834,-21.14,25.08,0.868
195.258543,-24.57,21.357,-0.996
195.269252,-24.22,19.853,-4.958
195.279961,-22.75,20.513,-11.523
195.29067,-21.28,23.151,-19.232
195.301379,-18.97,26.135,-25.672
195.312088,-18.62,28.202,-30.141
195.322797,-19.32,29.727,-31.933
195.33352,-20.3,30.002,-31.885
195.344243,-20.3,29.419,-28.576
195.354966,-19.95,28.353,-24.143
195.365689,-19.67,26.646,-21.317
195.376412,-20.09,25.645,-18.863
195.387135,-21.07,24.246,-18.186
195.397858,-21.7,21.72,-16.357
195.408581,-25.2,17.933,-12.618
195.419304,-33.81,13.368,-6.883
195.430027,-45.64,8.122,-2.122
195.44075,-55.23,3.204,0.778
195.451473,-60.2,-0.79,2.064
195.462201,-58.45,-4.424,1.708
195.472929,-54.46,-8.455,0.784
195.483657,-47.6,-12.222,1.186
195.494385,-41.16,-14.809,2.151
195.505113,-35.84,-16.528,3.838
195.515841,-29.96,-17.809,5.46
195.526569,-24.78,-19.418,6.527
195.537297,-17.36,-20.643,4.605
195.548025,-7.07,-21.288,2.217
195.558753,3.15,-21.321,-0.419
195.569481,12.67,-21.236,-2.11
195.580209,16.8,-21.998,-0.609
195.590937,15.12,-21.718,3.847
195.601663,13.02,-20.911,7.33
195.612389,9.66,-17.995,10.545
195.623115,2.31,-13.209,13.237
195.633841,-8.61,-6.965,10.074
195.644567,-17.78,0.41,0.499
195.655293,-20.16,7.273,-11.014
195.666019,-17.29,12.636,-20.873
195.676745,-8.61,14.448,-26.311
195.687471,1.26,12.502,-26.156
195.698197,10.36,8.22,-23.642
195.708923,19.53,2.726,-19.493
195.719649,27.37,-1.04,-11.84
195.730349,32.55,-3.739,-3.787
195.741049,36.26,-5.036,1.955
195.751749,39.55,-5.644,5.402
195.762449,42.63,-5.291,8.236
195.773149,44.38,-4.804,10.313
195.783849,45.5,-4.069,13.001
195.794549,43.96,-4.15,17.891
195.805249,41.09,-5.67,22.883
195.815949,34.86,-7.295,28.07
195.826649,23.52,-7.684,31.484
195.837349,11.41,-6.828,32.275
195.848049,2.59,-5.401,29.825
195.858749,-3.78,-4.262,26.188
195.86945,-7.28,-2.933,21.873
195.880151,-7,-2.398,17.631
195.890852,-4.76,-2.111,13.986
195.901553,-0.56,-1.045,10.762
195.912254,3.15,-0.129,8.791
195.922955,4.69,1.282,8.045
195.933656,5.95,3.764,7.274
195.944357,8.75,7.949,5.311
195.955058,12.81,10.827,3.899
195.965759,15.96,12.113,1.851
195.97646,19.04,11.541,0.258
195.987161,21.07,9.331,0.295
195.997881,22.89,6.326,0.405
196.008601,21.56,4.692,0.401
196.019321,15.26,5.413,-0.467
196.030041,7.07,7.794,2.156
196.040761,-1.89,10.134,4.204
196.051481,-7.63,11.606,4.321
196.062201,-9.52,12.531,7.541
196.072921,-11.55,12.227,8.056
196.083641,-10.57,10.71,8.997
196.094361,-7.63,7.548,8.794
196.105081,-3.15,3.456,8.215
196.115801,2.03,0.054,7.757
196.126506,7.49,-2.323,7.125
196.137211,13.02,-3.75,4.741
196.147916,19.25,-4.979,2.036
196.158621,22.96,-5.657,-0.571
196.169326,23.94,-5.965,-2.047
196.180031,22.68,-4.741,-6.167
196.190736,22.75,-2.657,-9.922
196.201441,21.14,-0.415,-13.365
196.212146,19.18,1.409,-16.455
196.222851,17.85,1.964,-17.992
196.233556,15.68,1.417,-18.515
196.244261,12.53,-0.079,-17.286
196.254966,8.4,-1.596,-15.137
196.265689,5.04,-4.511,-13.519
196.276412,1.68,-6.461,-11.73
196.287135,-2.73,-8.444,-10.161
196.297858,-6.23,-10.483,-8.672
196.308581,-9.03,-11.671,-7.176
196.319304,-11.83,-12.563,-6.551
196.330027,-13.09,-13.172,-6.729
196.34075,-14.21,-12.271,-6.997
196.351473,-19.46,-11.619,-7.877
196.362196,-28.28,-10.974,-9.114
196.372919,-38.29,-11.152,-8.506
196.383642,-44.59,-11.46,-6.357
196.394346,-49.21,-11.476,-5.862
196.40505,-49.07,-10.767,-7.869
196.415754,-46.34,-8.837,-9.946
196.426458,-43.05,-7.074,-12.691
196.437162,-39.48,-6.34,-16.045
196.447866,-36.75,-6.413,-18.048
196.45857,-35.42,-8.117,-18.064
196.469274,-35.49,-10.351,-16.681
196.479978,-35.35,-12.698,-13.043
196.490682,-34.37,-14.567,-7.686
196.501386,-30.31,-16.087,-2.694
196.51209,-24.29,-17.007,0.911
196.522794,-16.17,-17.76,5.185
196.533513,-8.33,-19.589,6.284
196.544232,-0.07,-21.462,7.233
196.554951,5.81,-23.493,9.078
196.56567,8.89,-25.217,9.983
196.576389,9.45,-27.191,9.492
196.587108,6.58,-27.511,11.711
196.597827,-0.98,-28.411,14.395
196.608546,-9.87,-28.679,13.495
196.619265,-18.48,-26.834,13.109
196.629984,-25.2,-23.092,9.22
196.640703,-30.03,-18.762,1.596
196.651422,-32.41,-14.465,-6.247
196.662115,-30.17,-10.31,-14.897
196.672808,-26.74,-6.743,-23.437
196.683501,-20.37,-4.039,-29.499
196.694194,-14.77,-2.831,-33.125
196.704887,-9.87,-2.543,-33.145
196.71558,-5.39,-2.989,-29.812
196.726273,-2.03,-4.103,-23.895
196.736966,0.91,-4.945,-16.296
196.747659,4.27,-7.073,-9.066
196.758352,5.88,-8.581,-2.935
196.769045,6.37,-10.336,1.376
196.779738,5.67,-11.524,4.081
196.790431,4.69,-12.047,5.837
196.801128,3.57,-11.702,5.898
196.811825,2.1,-11.645,5.979
196.822522,1.68,-11.6,6.129
196.833219,0.91,-11.288,5.971
196.843916,-0.21,-11.045,5.8
196.854613,-1.96,-11.012,7.228
196.86531,-4.13,-11.053,9.068
196.876007,-4.9,-10.704,9.912
196.886704,-4.62,-10.582,10.431
196.897401,-5.25,-9.301,11.226
196.908098,-5.6,-8.473,12.58
196.918795,-5.11,-7.601,14.084
196.929503,-5.74,-6.587,15.187
196.940211,-5.81,-5.618,16.14
196.950919,-5.46,-4.377,16.358
196.961627,-4.55,-3.274,14.136
196.972335,-3.15,-1.835,11.618
196.983043,-2.1,0.585,8.775
196.993751,-0.07,3.099,4.598
197.004459,2.45,5.43,1.455
197.015167,5.6,7.437,0.956
197.025875,7.7,9.245,0.777
197.036583,9.24,9.996,1.763
197.047291,9.66,10.722,4.094
197.057999,8.75,10.888,5.971
197.068707,8.89,9.579,6.949
197.079415,10.29,8.01,7.383
197.090134,12.18,2.954,12.675
197.100853,11.41,-0.375,15.429
197.111572,9.94,-2.917,17.753
197.122291,7.28,-4.219,15.462
197.13301,5.25,-4.463,14.424
197.143729,2.8,-4.212,10.986
197.154448,1.96,-3.154,8.613
197.165167,1.12,-2.079,5.746
197.175886,1.26,-1.236,2.981
197.186605,1.89,-1.03,0.6
197.197343,3.57,-0.799,-1.918
197.208081,3.78,-1.302,-4.708
197.218819,3.08,-2.414,-7.676
197.229557,3.08,-3.915,-10.855
197.240295,3.5,-5.087,-13.478
197.251033,4.48,-5.89,-16.179
197.261771,3.57,-6.255,-18.944
197.272509,0.63,-6.252,-20.578
197.283247,-3.71,-6.771,-20.456
197.293985,-8.12,-7.018,-19.86
197.304723,-11.9,-7.018,-19.86
197.315461,-14.98,-6.292,-19.946
197.326252,-17.57,-5.558,-19.674
197.337043,-17.71,-4.22,-20.007
197.347834,-16.38,-2.748,-21.098
197.358625,-13.65,-1.11,-22.728
197.369416,-11.9,0.937,-23.86
197.380207,-10.64,3.164,-24.391
197.390998,-9.1,4.546,-23.365
197.401789,-9.52,5.735,-22.445
197.41258,-12.18,5.269,-20.608
197.423371,-16.38,2.848,-17.765
197.434162,-19.81,-0.566,-14.529
197.444953,-23.59,-4.543,-11.321
197.455755,-26.6,-8.589,-6.917
197.466557,-29.89,-11.784,-3.713
197.477359,-31.29,-14.018,-2.33
197.488161,-31.57,-14.789,-1.186
197.498963,-31.22,-14.979,-0.509
197.509765,-30.03,-13.58,-2.395
197.520567,-27.16,-11.671,-5.967
197.531369,-21.77,-9.928,-7.792
197.542171,-18.06,-8.667,-9.702
197.552973,-14.91,-8.168,-8.904
197.563775,-12.81,-8.358,-7.018
197.574577,-8.4,-8.573,-6.203
197.585379,-2.45,-7.864,-7.002
197.596198,3.08,-4.948,-6.203
197.607017,6.72,-0.597,-9.914
197.617836,10.43,3.818,-15.604
197.628655,12.18,8.371,-20.061
197.639474,13.79,11.772,-24.437
197.650293,13.3,14.513,-28.29
197.661112,14.84,16.195,-30.978
197.671931,16.8,16.678,-30.893
197.68275,19.25,16.151,-29.92
197.693569,22.96,15.867,-27.909
197.704388,26.39,15.284,-23.391
197.715207,29.05,14.587,-19.036
197.726029,31.01,13.785,-14.486
197.736851,31.36,12.5,-8.813
197.747673,30.73,11.532,-2.516
197.758495,28.63,10.722,2.886
197.769317,27.44,10.126,7.472
197.780139,27.23,10.249,11.616
197.790961,26.32,10.918,15.075
197.801783,24.15,11.405,18.359
197.812605,23.17,11.803,20.135
197.823427,21.7,12.415,21.096
197.834249,20.3,12.411,21.522
197.845071,18.69,12.748,21.226
197.855893,18.2,12.5,20.614
197.86672,18.69,12.135,20.265
197.877547,18.69,11.263,19.969
197.888374,18.13,10.85,18.688
197.899201,16.8,10.781,17.467
197.910028,14.14,10.282,16.669
197.920855,10.5,9.256,16.843
197.931682,6.02,8.108,15.29
197.942509,2.8,7.796,14.24
197.953336,0.7,8.091,12.16
197.964163,-1.12,8.557,10.323
197.97499,-2.94,8.083,9.386
197.985817,-3.5,7.973,8.798
197.996661,-5.11,7.661,8.956
198.007505,-4.34,6.729,10.214
198.018349,-4.27,5.796,10.262
198.029193,-5.18,5.593,11.009
198.040037,-6.58,4.953,11.82
198.050881,-7.56,4.077,13.158
198.061725,-7.84,3.453,13.474
198.072569,-5.53,3.461,12.623
198.083413,-5.67,3.339,10.895
198.094257,-7.91,2.941,11.536
198.105101,-10.71,2.459,11.451
198.115945,-13.02,1.603,10.66
198.12678,-17.22,0.622,10.985
198.137615,-19.74,-0.165,11.415
198.14845,-21.91,-0.372,10.17
198.159285,-20.51,-0.319,9.468
198.17012,-18.69,0.265,8.576
198.180955,-17.64,1.23,7.538
198.19179,-17.99,2.227,6.719
198.202625,-18.34,3.484,6.443
198.21346,-18.76,4.328,6.094
198.224295,-19.25,4.83,5.259
198.23513,-20.72,4.566,3.933
198.245965,-22.05,3.796,1.451
198.2568,-22.4,3.017,-1.387
198.267631,-22.33,2.221,-4.939
198.278462,-21.98,1.013,-8.564
198.289293,-20.79,0.319,-11.885
198.300124,-19.95,0.192,-15.604
198.310955,-19.95,0.078,-19.391
198.321786,-19.81,0.419,-22.53
198.332617,-20.16,1.477,-24.902
198.343448,-19.6,2.693,-26.962
198.354279,-18.76,3.767,-28.621
198.36511,-17.92,4.692,-29.026
198.375941,-17.15,5.349,-27.915
198.386772,-16.66,5.414,-26.269
198.397561,-17.36,5.524,-24.473
198.40835,-18.76,5.354,-22.299
198.419139,-21.42,5.11,-20.92
198.429928,-24.08,4.137,-19.031
198.440717,-26.67,3.169,-17.567
198.451506,-28.07,2.37,-17.068
198.462295,-28.07,1.474,-16.017
198.473084,-27.51,0.12,-13.982
198.483873,-27.23,-1.526,-11.5
198.494662,-25.97,-2.572,-9.196
198.505451,-24.15,-3.825,-6.929
198.51624,-24.57,-5.673,-3.701
198.527029,-22.68,-6.813,-1.272
198.537806,-21.98,-8.086,-0.502
198.548583,-20.79,-8.832,0.504
198.55936,-20.16,-9.395,0.476
198.570137,-20.44,-9.849,1.035
198.580914,-20.72,-10.198,0.192
198.591691,-18.48,-10.422,-1.767
198.602468,-16.31,-10.625,-3.437
198.613245,-16.73,-9.505,-3.737
198.624022,-19.39,-7.669,-5.688
198.634799,-20.79,-5.415,-9.2
198.645576,-21.42,-2.666,-12.696
198.656353,-22.12,0.5,-17.753
198.667087,-20.93,2.937,-21.09
198.677821,-17.08,5.219,-25.166
198.688555,-12.46,7.993,-27.591
198.699289,-8.75,10.324,-29.526
198.710023,-7,12.769,-30.09
198.720757,-5.74,14.61,-30.05
198.731491,-4.34,15.441,-29.121
198.742225,-4.13,15.628,-26.956
198.752959,-4.62,15.097,-24.348
198.763693,-5.6,14.502,-20.97
198.774427,-6.16,13.533,-17.09
198.785161,-6.58,12.261,-12.694
198.795895,-6.65,10.72,-9.198
198.806592,-6.72,8.758,-4.924
198.817289,-6.37,7.339,-0.909
198.827986,-6.09,5.613,2.838
198.838683,-4.97,3.675,5.766
198.84938,-3.29,2.434,7.964
198.860077,-2.24,1.368,9.979
198.870774,-0.84,0.654,11.204
198.881471,0.91,-0.181,11.91
198.892168,2.1,-1.766,12.838
198.902865,3.36,-2.95,12.701
198.913562,3.64,-4.657,13.11
198.924259,3.64,-6.34,13.382
198.934934,2.31,-7.573,13.52
198.945609,1.05,-7.812,12.057
198.956284,-0.91,-7.354,11.071
198.966959,-3.08,-6.458,10.021
198.977634,-5.81,-5.185,9.25
198.988309,-8.12,-3.137,8.119
198.998984,-9.94,-1.224,7.745
199.009659,-11.62,0.581,6.784
199.020334,-12.74,2.612,4.939
199.031009,-12.6,5.049,4.018
199.041684,-12.39,7.522,2.89
199.052359,-10.57,9.975,0.266
199.063017,-9.17,12.57,-1.551
199.073675,-9.1,14.666,-2.958
199.084333,-9.94,15.83,-3.108
199.094991,-10.99,16.228,-3.749
199.105649,-9.1,16.26,-7.155
199.116307,-9.03,15.675,-8.68
199.126965,-8.54,14.962,-7.455
199.137623,-10.57,13.559,-5.144
199.148281,-12.6,10.721,0.469
199.158939,-14.77,6.89,6.475
199.169597,-15.68,2.994,10.835
199.180255,-13.86,-0.646,17.372
199.190913,-11.9,-3.703,21.808
199.201516,-10.5,-5.341,25.855
199.212119,-10.43,-6.443,30.494
199.222722,-12.11,-7.242,32.202
199.233325,-14.07,-8.26,32.733
199.243928,-15.12,-10.104,33.119
199.254531,-14.63,-11.921,32.94
199.265134,-14.21,-14.188,31.688
199.275737,-14.84,-16.633,29.835
199.28634,-14.63,-19.164,26.048
199.296943,-14.28,-22.125,21.474
199.307546,-12.46,-25.451,16.552
199.318149,-10.22,-28.785,11.273
199.328752,-7.84,-32.346,5.669
199.339353,-6.86,-36.588,0.301
199.349954,-5.04,-41.601,-3.923
199.360555,-4.69,-47.724,-7.491
199.371156,-5.25,-54.521,-10.466
199.381757,-6.3,-61.601,-13.847
199.392358,-7.28,-68.491,-16.697
199.402959,-9.24,-75.239,-19.948
199.41356,-10.78,-80.843,-22.429
199.424161,-12.46,-86.444,-24.127
199.434762,-13.86,-92.072,-25.262
199.445363,-16.03,-97.421,-25.565
199.455964,-17.78,-102.124,-23.48
199.466533,-19.81,-106,-21.25
199.477102,-20.65,-109.508,-20.304
199.487671,-20.58,-111.632,-18.333
199.49824,-19.32,-112.78,-15.053
199.508809,-19.18,-113.525,-11.63
199.519378,-17.99,-114.53,-8.751
199.529947,-16.73,-115.203,-5.742
199.540516,-14.42,-115.316,-3.487
199.551085,-12.53,-114.951,-4.347
199.561654,-11.27,-113.78,-5.349
199.572223,-10.64,-112.563,-6.201
199.582792,-10.43,-112.284,-6.578
199.593361,-11.9,-111.606,-5.179
199.603923,-14.35,-109.749,-2.008
199.614485,-17.78,-106.013,2.204
199.625047,-19.88,-100.721,6.052
199.635609,-21.91,-94.906,8.143
199.646171,-22.26,-89.565,9.298
199.656733,-20.65,-85.964,10.644
199.667295,-20.02,-84.099,8.13
199.677857,-19.32,-83.605,4.521
199.688419,-16.1,-83.5,-0.507
199.698981,-12.18,-82.487,-4.238
199.709543,-9.59,-81.446,-7.324
199.720105,-9.31,-80.396,-10.053
199.730652,-9.03,-78.51,-11.071
199.741199,-7.77,-75.408,-11.733
199.751746,-6.65,-71.337,-11.441
199.762293,-6.37,-67.128,-9.917
199.77284,-7.14,-63.571,-9.93
199.783387,-6.72,-60.185,-8.977
199.793934,-5.6,-56.84,-6.184
199.804481,-6.23,-53.535,-3.966
199.815028,-9.17,-50.173,-2.876
199.825575,-11.9,-46.304,-1.839
199.836122,-14.63,-42.127,-0.533
199.846669,-18.13,-38.77,-1.434
199.857216,-18.62,-35.664,-2.521
199.867776,-14.42,-33.105,-1.715
199.878336,-9.45,-30.157,-0.697
199.888896,-8.26,-27.132,-2.936
199.899456,-7.14,-23.856,-4.988
199.910016,-7.42,-20.243,-4.92
199.920576,-10.01,-17.056,-4.856
199.931136,-12.25,-14.453,-5.107
199.941696,-12.53,-12.133,-3.348
199.952256,-15.54,-9.809,-2.014
199.962816,-18.06,-7.368,-0.944
199.973376,-19.88,-5.186,-0.417
199.983936,-22.19,-2.867,0.134
199.994541,-32.2,0.057,-1.127
200.005146,-38.08,1.557,-1.574
200.015751,-40.04,2.705,-1.229
200.026356,-36.61,3.816,1.739
200.036961,-32.06,5.755,3.645
200.047566,-29.47,8.346,3.462
200.058171,-28.49,11.147,0.473
200.068776,-26.88,14.103,-2.986
200.079381,-23.45,14.926,-3.623
200.089986,-18.13,14.942,-4.118
200.100591,-11.9,16.969,-6.746
200.111196,-5.81,19.897,-8.433
200.121892,2.73,21.864,-7.091
200.132588,12.18,22.764,-7.359
200.143284,22.75,22.075,-5.064
200.15398,33.04,19.046,1.226
200.164676,38.5,13.431,8.481
200.175372,38.64,8.996,11.466
200.186068,37.59,5.727,10.25
200.196764,33.11,3.269,6.05
200.20746,26.88,0.463,3.422
200.218156,17.15,-2.409,0.357
200.228852,7.42,-4.879,-3.775
200.239548,-2.38,-7.876,-5.725
200.250344,-11.27,-10.045,-7.529
200.26114,-19.88,-11.432,-9.337
200.271936,-27.72,-12.908,-10.237
200.282732,-35.07,-14.559,-12.163
200.293528,-43.05,-17.138,-14.466
200.304324,-50.61,-19.389,-17.422
200.31512,-55.23,-21.969,-20.933
200.325916,-55.58,-25.683,-22.441
200.336712,-51.38,-29.483,-21.049
200.347508,-47.25,-32.317,-19.488
200.358304,-48.16,-33.582,-18.36
200.3691,-50.75,-33.708,-18.454
200.379948,-51.52,-34.527,-18.243
200.390796,-53.41,-35.325,-15.327
200.401644,-55.37,-35.941,-11.029
200.412492,-58.24,-36.751,-5.627
200.42334,-60.55,-37.038,0.435
200.434188,-62.65,-36.121,4.506
200.445036,-66.01,-34.864,5.439
200.455884,-66.36,-33.072,4.546
200.466732,-62.93,-32.614,3.561
200.47758,-57.54,-34.179,3.569
200.488428,-50.54,-36.859,4.66
200.499276,-42.49,-38.124,5.788
200.510124,-33.04,-38.168,9.263
200.520992,-24.64,-36.489,10.625
200.53186,-17.43,-33.846,7.324
200.542728,-9.94,-31.268,-0.04
200.553596,-4.9,-29.181,-7.846
200.564464,-4.34,-28.289,-12.096
200.575332,-9.24,-29.157,-14.026
200.5862,-16.87,-30.958,-12.282
200.597068,-23.45,-30.747,-15.088
200.607936,-29.4,-26.957,-24.087
200.618804,-32.34,-19.801,-31.213
200.629672,-33.18,-10.784,-39.218
200.64054,-32.55,-1.677,-44.507
200.651408,-31.43,3.757,-45.895
200.662309,-29.19,6.997,-44.115
200.67321,-27.3,8.474,-37.173
200.684111,-24.71,8.507,-29.704
200.695012,-21.07,9.21,-23.609
200.705913,-14.77,11.36,-18.468
200.716814,-7.84,14.369,-14.17
200.727715,-0.14,18.222,-10.221
200.738616,8.89,21.803,-6.746
200.749517,19.53,25.647,-4.363
200.760418,29.89,28.482,-1.091
200.771319,39.97,31.049,2.489
200.78222,48.86,33.134,5.985
200.793161,55.23,35.004,9.086
200.804102,59.71,37.794,11
200.815043,58.66,41.318,11.977
200.825984,53.41,45.207,10.885
200.836925,46.06,49.906,9.226
200.847866,36.89,55.717,9.327
200.858807,25.62,58.491,12.943
200.869748,14,58.058,21.041
200.880689,2.73,56.811,30.133
200.89163,-7.42,56.163,37.837
200.902571,-12.95,58.357,41.92
200.913512,-15.61,62.676,42.824
200.924441,-15.12,67.031,42.313
200.93537,-13.16,71.142,40.763
200.946299,-11.27,73.109,40.897
200.957228,-10.08,72.533,42.146
200.968157,-9.45,71.256,44.55
200.979086,-8.33,69.416,46.927
200.990015,-6.79,69.53,48.297
201.000944,-5.11,71.529,48.65
201.011873,-2.45,74.614,47.275
201.022802,-1.47,78.904,45.117
201.033731,-0.28,82.862,42.829
201.04466,1.75,86.685,41.3
201.055589,4.55,90.144,40.631
201.066525,6.65,91.575,38.964
201.077461,7.28,91.47,39.158
201.088397,5.32,89.576,38.611
201.099333,1.12,87.321,36.081
201.110269,-5.11,83.396,34.963
201.121205,-14.42,77.727,36.877
201.132141,-23.45,70.878,38.229
201.143077,-25.62,65.692,35.395
201.154013,-21.98,64.726,27.974
201.164949,-15.05,65.264,22.099
201.175885,-8.4,64.444,17.476
201.186821,1.47,65.007,12.671
201.197716,11.55,65.502,11.479
201.208611,18.55,65.291,11.868
201.219506,23.8,64.853,13.141
201.230401,28,65.628,12.78
201.241296,30.24,67.493,10.266
201.252191,29.89,69.325,6.324
201.263086,28.21,69.093,2.8
201.273981,27.93,66.68,-0.042
201.284876,26.88,62.3,-3.017
201.295771,23.73,56.473,-6.248
201.306666,18.13,51.286,-7.874
201.317561,9.8,45.301,-7.792
201.328456,-1.05,40.022,-6.875
201.339328,-12.32,36.137,-5.001
201.3502,-20.02,33.944,-5.459
201.361072,-25.83,33.98,-8.082
201.371944,-28.91,35.407,-11.74
201.382816,-30.1,37.616,-15.402
201.393688,-30.45,39.667,-18.168
201.40456,-31.43,40.288,-19.267
201.415432,-30.94,39.968,-18.257
201.426304,-29.4,38.609,-15.796
201.437176,-25.9,36.886,-13.683
201.448048,-20.16,35.946,-12.782
201.45892,-15.89,35.869,-13.151
201.469768,-13.65,36.051,-14.185
201.480616,-10.78,36.391,-16.116
201.491464,-6.37,36.723,-18.403
201.502312,-4.13,35.345,-17.437
201.51316,-2.1,31.854,-15.778
201.524008,1.33,26.465,-11.824
201.534856,2.52,19.483,-6.089
201.545704,2.45,11.354,0.509
201.556552,2.8,3.647,8.746
201.5674,2.59,-2.731,16.293
201.578248,1.4,-6.992,20.304
201.589096,0,-7.422,19.518
201.599944,-4.48,-5.322,16.476
201.610792,-14.56,-3.522,12.315
201.621575,-26.95,-3.855,9.769
201.632358,-35.84,-4.269,9.696
201.643141,-43.12,-3.385,9.923
201.653924,-49.98,-0.234,7.778
201.664707,-50.75,5.511,0.19
201.67549,-43.96,12.987,-7.946
201.686273,-33.6,21.428,-18.327
201.697056,-24.5,28.564,-26.949
201.707839,-17.01,31.628,-32.238
201.718622,-9.66,31.596,-36.082
201.729405,-4.13,29.487,-34.605
201.740188,-1.05,26.236,-25.441
201.750971,3.29,22.413,-19.078
201.761688,8.47,19.791,-13.072
201.772405,12.74,17.805,-3.826
201.783122,13.58,15.531,3.023
201.793839,12.6,12.681,9.913
201.804556,11.2,9.215,17.476
201.815273,4.06,5.652,25.59
201.82599,-8.26,3.305,29.228
201.836707,-21.42,2.989,32.229
201.847424,-27.65,3.808,34.434
201.858141,-28.56,5.143,35.736
201.868858,-28.14,5.958,37.159
201.879575,-28.63,6.822,38.307
201.890292,-28.49,7.564,38.935
201.900956,-27.86,8.257,38.631
201.91162,-28.91,9.49,37.284
201.922284,-30.03,10.897,35.755
201.932948,-30.66,12.47,33.687
201.943612,-28.56,14.27,30.735
201.954276,-24.78,16.289,27.75
201.96494,-18.83,17.882,25.97
201.975604,-11.55,18.247,25.11
201.986268,-4.2,18.016,25.211
201.996932,0.63,16.463,26.359
202.007596,3.29,14.358,27.41
202.018227,2.59,12.428,27.069
202.028858,-4.27,11.783,24.681
202.039489,-14.07,12.484,22.317
202.05012,-23.73,14.333,17.881
202.060751,-29.61,16.039,12.637
202.071382,-29.82,17.223,9.15
202.082013,-26.25,20.041,8.083
202.092644,-23.38,22.113,9.23
202.103275,-20.86,21.809,10.954
202.113906,-14.98,20.747,13.752
202.124537,-8.19,18.4,17.389
202.135168,-5.39,15.667,21.599
202.145738,-0.84,13.79,21.765
202.156308,7,12.314,20.865
202.166878,15.4,10.615,19.215
202.177448,24.29,9.71,16.283
202.188018,31.92,9.673,12.865
202.198588,35.63,9.004,10.615
202.209158,37.17,7.292,9.034
202.219728,35.63,5.922,9.147
202.230298,32.06,3.967,10.153
202.240868,28.63,1.624,10.948
202.251438,24.15,-0.079,12.141
202.262008,19.95,-2.107,12.352
202.272578,17.29,-4.09,11.505
202.283104,15.47,-6.044,11.302
202.29363,14.28,-8.384,10.463
202.304156,13.09,-10.603,8.935
202.314682,12.95,-12.792,8.051
202.325208,12.88,-14.852,6.835
202.335734,12.46,-16.515,4.978
202.34626,12.6,-17.671,3.068
202.356786,12.04,-17.98,0.384
202.367312,11.69,-17.315,-2.982
202.377838,9.66,-16.48,-6.105
202.388364,5.6,-16.655,-8.339
202.39889,2.38,-16.428,-9.223
202.4094,-3.29,-15.682,-10.229
202.41991,-9.1,-14.239,-10.756
202.43042,-13.16,-12.296,-11.693
202.44093,-14.98,-9.373,-14.163
202.45144,-14.42,-6.738,-16.612
202.46195,-13.58,-4.532,-18.64
202.47246,-12.46,-3.275,-20.124
202.48297,-9.94,-3.746,-20.278
202.49348,-6.79,-5.716,-19.986
202.50399,-2.45,-8.189,-17.65
202.5145,2.87,-11.255,-14.779
202.52501,8.75,-14.064,-10.938
202.535535,14.35,-16.602,-6.624
202.54606,19.39,-18.45,0.23
202.556585,23.1,-20.051,7.695
202.56711,26.18,-21.834,13.778
202.577635,29.19,-23.735,17.707
202.58816,30.8,-26.059,19.999
202.598685,28.42,-29.741,17.501
202.60921,23.1,-33.014,14.294
202.619735,15.26,-36.031,12.056
202.63026,4.41,-38.78,10.719
202.640785,-7.14,-41.87,11.311
202.65131,-15.68,-43.991,10.44
202.66183,-20.72,-43.606,8.659
202.67235,-21.91,-41.027,7.337
202.68287,-19.6,-38.116,3.728
202.69339,-14.84,-34.626,-1.556
202.70391,-8.61,-30.6,-7.457
202.71443,-1.47,-26.963,-12.36
202.72495,5.04,-23.408,-17.206
202.73547,11.06,-20.448,-21.091
202.74599,16.03,-18.303,-22.774
202.75651,19.32,-16.677,-23.127
202.76703,19.95,-16.028,-21.165
202.77755,20.44,-15.809,-16.364
202.78807,20.09,-15.403,-11.814
202.798619,18.48,-15.227,-7.163
202.809168,15.96,-14.035,-3.043
202.819717,12.25,-12.388,0.517
202.830266,7.49,-11.848,4.308
202.840815,3.15,-11.576,7.199
202.851364,-0.91,-11.584,10.468
202.861913,-4.06,-11.782,14.413
202.872462,-6.44,-12.073,17.276
202.883011,-7.91,-12.406,19.563
202.89356,-7.7,-12.568,20.885
202.904109,-7.14,-12.884,21.469
202.914658,-5.74,-12.454,21.047
202.925265,-2.45,-11.1,19.011
202.935872,1.47,-9.016,16.465
202.946479,5.11,-7.184,13.731
202.957086,7.42,-5.805,11.558
202.967693,8.05,-5.282,9.802
202.9783,6.72,-4.999,8.999
202.988907,5.11,-5.104,7.985
202.999514,3.71,-4.541,6.805
203.010121,3.64,-3.065,5.288
203.020728,2.31,-1.293,1.691
203.031335,0.14,1.76,-2.32
203.041942,-2.03,4.318,-6.347
203.052598,-4.13,6.799,-9.534
203.063254,-6.44,8.396,-10.532
203.07391,-6.79,9.455,-10.488
203.084566,-7.07,11.28,-9.953
203.095222,-7.14,12.727,-8.489
203.105878,-7.98,13.904,-6.291
203.116534,-7.91,14.399,-3.858
203.12719,-6.79,14.265,-1.892
203.137846,-3.22,14.188,0.156
203.148502,-0.7,13.171,0.688
203.159158,1.19,12.186,2.646
203.169814,-0.21,11.513,3.238
203.18048,-2.1,10.754,1.896
203.191146,-4.55,9.74,2.002
203.201812,-4.97,8.974,1.511
203.212478,-3.92,8.694,-0.528
203.223144,-1.54,9.638,-1.854
203.23381,2.24,10.032,-3.278
203.244476,6.3,10.319,-5.715
203.255142,10.43,10.688,-8.209
203.265808,12.32,11.215,-10.39
203.276474,10.5,11.551,-11.895
203.28714,6.86,11.17,-14.166
203.297806,2.94,10.44,-14.863
203.308472,-1.47,9.304,-16.485
203.319153,-6.3,7.726,-18.824
203.329834,-11.62,6.708,-20.71
203.340515,-15.75,5.791,-22.364
203.351196,-19.39,4.875,-24.018
203.361877,-21.91,4.287,-26.326
203.372558,-23.45,4.152,-27.984
203.383239,-24.22,3.99,-29.079
203.39392,-24.85,4.367,-30.008
203.404601,-24.43,4.898,-30.198
203.415282,-23.17,5.065,-29.529
203.425963,-20.93,5.43,-29.18
203.436644,-18.48,6.002,-27.587
203.44736,-14.77,6.128,-25.077
203.458076,-12.11,5.905,-22.202
203.468792,-9.94,4.863,-17.908
203.479508,-7.28,3.85,-14.177
203.490224,-6.09,2.586,-10.633
203.50094,-4.62,1.597,-7.04
203.511656,-3.92,1.228,-4.546
203.522372,-4.34,1.18,-1.853
203.533088,-3.57,1.107,0.977
203.543804,-2.52,0.146,2.798
203.55452,-4.34,-1.358,4.878
203.565236,-5.04,-2.858,6.533
203.575948,-5.88,-5.06,4.51
203.58666,-6.65,-6.67,4.368
203.597372,-7.63,-7.753,3.253
203.608084,-9.87,-8.114,1.27
203.618796,-12.11,-8.459,0.001
203.629508,-14.49,-8.844,-0.635
203.64022,-14.91,-9.185,-2.33
203.650932,-13.02,-8.455,-4.05
203.661644,-8.82,-6.128,-4.35
203.672356,-7.14,-4.133,-5.989
203.683068,-5.04,-1.092,-7.514
203.69378,-5.39,0.866,-10.154
203.704492,-4.97,2.399,-9.173
203.715226,-4.83,3.668,-10.726
203.72596,-3.57,4.735,-10.325
203.736694,-3.36,6.369,-10.321
203.747428,-2.38,6.706,-9.409
203.758162,-0.77,6.807,-7.969
203.768896,1.68,6.771,-6.554
203.77963,3.99,6.179,-4.81
203.790364,6.51,5.49,-2.515
203.801098,7.7,4.351,-0.086
203.811832,8.12,2.94,3.077
203.822566,7.35,1.152,5.961
203.8333,5.74,-0.871,9.371
203.844069,2.52,-2.111,11.569
203.854838,-2.03,-2.979,13.264
203.865607,-7.42,-3.72,16.261
203.876376,-11.69,-4.032,18.836
203.887145,-15.26,-4.543,20.523
203.897914,-17.85,-4.794,21.545
203.908683,-19.88,-4.766,22.19
203.919452,-20.51,-4.603,22.076
203.930221,-19.88,-4.753,22.121
203.94099,-18.13,-5.216,22.323
203.951759,-16.31,-5.873,22.421
203.962528,-15.47,-6.854,22.745
203.973322,-13.58,-7.507,23.625
203.984116,-10.92,-8.297,23.273
203.99491,-8.33,-8.845,22.75
204.005704,-6.3,-8.926,21.598
204.016498,-6.37,-8.509,18.829
204.027292,-7.21,-7.832,15.394
204.038086,-9.1,-6.515,11.148
204.04888,-12.67,-5.072,6.996
204.059674,-15.4,-3.54,3.143
204.070468,-17.36,-2.202,0.394
204.081262,-17.78,-1.233,-2.279
204.092056,-16.66,0.283,-4.428
204.10285,-14.63,2.351,-6.48
204.113625,-12.18,4.974,-8.861
204.1244,-10.71,7.18,-9.68
204.135175,-9.1,8.692,-10.195
204.14595,-8.19,8.863,-11.161
204.156725,-6.44,8.384,-11.671
204.1675,-6.09,7.602,-10.459
204.178275,-5.95,5.887,-7.989
204.18905,-5.74,3.924,-6.132
204.199825,-7.28,1.723,-4.53
204.2106,-9.03,-0.759,-2.55
204.221375,-10.43,-4.01,-0.636
204.23215,-11.62,-8.244,1.603
204.242925,-10.99,-12.448,3.278
204.253678,-9.1,-16.507,4.126
204.264431,-7.49,-19.293,4.204
204.275184,-6.16,-21.381,3.551
204.285937,-5.04,-23.575,1.885
204.29669,-3.64,-25.624,-0.609
204.307443,-4.69,-27.838,-2.563
204.318196,-7.49,-30.628,-4.477
204.328949,-11.41,-33.661,-6.22
204.339702,-14.42,-37.011,-8.587
204.350455,-15.89,-41.204,-8.189
204.361208,-19.11,-44.943,-9.559
204.371961,-20.86,-49.371,-12.259
204.382691,-22.4,-53.256,-14.011
204.393421,-22.33,-56.995,-15.381
204.404151,-22.47,-60.361,-17.254
204.414881,-22.47,-63.638,-20.035
204.425611,-22.82,-67.056,-22.415
204.436341,-22.47,-69.51,-24.624
204.447071,-22.47,-71.209,-26.275
204.457801,-23.31,-72.118,-26.364
204.468531,-23.1,-72.896,-25.577
204.479261,-22.33,-73.776,-23.813
204.489991,-21.91,-74.619,-22.256
204.500721,-23.24,-76.054,-20.163
204.511451,-23.38,-77.388,-17.839
204.522182,-25.13,-78.438,-17.527
204.532913,-24.71,-78.856,-15.966
204.543644,-23.31,-78.474,-14.903
204.554375,-21.84,-77.554,-13.675
204.565106,-20.09,-76.312,-11.039
204.575837,-18.2,-76.267,-7.264
204.586568,-16.24,-76.932,-2.69
204.597299,-15.05,-77.763,-1.202
204.60803,-15.96,-78.217,-0.642
204.618761,-18.41,-77.232,-1.392
204.629492,-21.7,-75.212,-3.169
204.640223,-25.06,-72.861,-3.607
204.650948,-27.93,-72.24,-2.289
204.661673,-29.96,-72.438,0.448
204.672398,-31.57,-72.531,2.991
204.683123,-32.27,-71.237,4.925
204.693848,-31.78,-67.92,5.865
204.704573,-30.66,-63.488,4.514
204.715298,-30.59,-57.856,1.598
204.726023,-31.85,-52.35,-3.829
204.736748,-32.13,-46.471,-8.55
204.747473,-30.38,-41.124,-15.497
204.758198,-28.28,-36.822,-21.348
204.768923,-24.85,-33.964,-24.256
204.779633,-20.86,-32.906,-26.629
204.790343,-15.54,-32.837,-26.616
204.801053,-8.96,-31.949,-24.398
204.811763,-2.17,-30.302,-20.838
204.822473,5.53,-27.459,-17.21
204.833183,10.71,-23.91,-13.954
204.843893,13.37,-21.019,-11.809
204.854603,14.07,-17.426,-10.82
204.865313,15.19,-13.967,-10.282
204.876023,16.52,-11.647,-9.73
204.886733,17.29,-9.38,-8.478
204.897443,17.15,-8.212,-6.637
204.908153,16.17,-7.154,-5.384
204.918873,12.11,-6.683,-4.022
204.929593,7.14,-6.91,-1.929
204.940313,2.31,-7.688,1.274
204.951033,-1.12,-6.455,3.553
204.961753,-4.06,-4.099,6.314
204.972473,-9.24,-2.375,7.826
204.983193,-12.81,-1.487,10.044
204.993913,-15.89,0.071,12.096
205.004633,-16.66,0.679,14.691
205.015353,-16.31,1.45,15.964
205.026073,-16.45,2.103,16.293
205.036793,-16.38,3.161,17.546
205.047524,-15.47,3.68,17.424
205.058255,-14.91,4.001,16.414
205.068986,-13.51,3.992,16.057
205.079717,-11.97,3.741,15.871
205.090448,-10.92,3.761,14.95
205.101179,-10.43,4.941,14.305
205.11191,-8.19,6.64,13.539
205.122641,-6.23,10.062,10.659
205.133372,-4.27,15.244,7.877
205.144103,-2.17,21.837,6.765
205.154834,-1.54,27.648,8.074
205.165565,2.31,33.767,7.233
205.176265,8.96,42.148,3.238
205.186965,16.73,51.332,0.735
205.197665,24.57,59.819,0.17
205.208365,30.8,65.646,0.984
205.219065,37.8,70.087,2.407
205.229765,42.98,73.57,4.016
205.240465,44.1,75.61,3.736
205.251165,42.77,76.461,3.744
205.261865,38.99,75.999,2.739
205.272565,34.86,74.422,2.816
205.283265,31.15,72.195,2.139
205.293965,26.46,69.251,0.696
205.304665,22.33,64.685,0.388
205.315365,18.27,59.215,-0.434
205.326038,15.4,53.055,-1.378
205.336711,13.3,46.474,-2.752
205.347384,10.92,41.158,-4.045
205.358057,8.33,35.448,-5.122
205.36873,5.04,30.286,-5.677
205.379403,1.26,25.781,-6.329
205.390076,-0.91,21.847,-6.596
205.400749,-3.15,18.291,-6.584
205.411422,-4.97,15.444,-7.37
205.422095,-6.72,12.658,-8.501
205.432768,-6.79,10.481,-9.454
205.443441,-7.21,8.725,-9.976
205.454098,-6.86,6.795,-10.317
205.464755,-6.02,4.723,-10.256
205.475412,-5.46,2.468,-10.369
205.486069,-4.41,0.307,-10.608
205.496726,-3.01,-2.24,-11.483
205.507383,-2.24,-6.04,-12.509
205.51804,-1.75,-8.692,-13.19
205.528697,-2.17,-10.983,-14.304
205.539354,-2.1,-13.732,-14.434
205.550011,-2.17,-16.672,-15.094
205.560668,-2.31,-20.017,-13.054
205.571325,-5.39,-24.907,-11.926
205.58197,-9.66,-30.548,-10.575
205.592615,-12.32,-37.279,-9.488
205.60326,-13.23,-43.909,-9.377
205.613905,-11.9,-48.925,-8.342
205.62455,-10.01,-52.517,-6.915
205.635195,-10.5,-53.746,-5.994
205.64584,-11.48,-53.815,-7.214
205.656485,-13.16,-52.821,-7.608
205.66713,-12.67,-50.38,-7.746
205.677775,-10.92,-47.149,-8.74
205.68842,-9.24,-43.872,-8.376
205.699065,-6.02,-40.612,-6.308
205.70971,-0.21,-37.42,-5.461
205.720369,6.79,-34.123,-4.809
205.731028,11.55,-30.356,-1.585
205.741687,10.08,-25.988,1.459
205.752346,4.06,-20.956,3.555
205.763005,-3.99,-16.511,4.552
205.773664,-11.62,-12.213,5.168
205.784323,-17.64,-9.569,4.283
205.794982,-18.83,-8.008,2.284
205.805641,-18.06,-6.427,-1.844
205.8163,-16.38,-5.872,-5.798
205.826959,-14.14,-5.816,-8.134
205.837618,-12.25,-5.926,-11.138
205.848287,-10.57,-6.453,-12.582
205.858956,-7.84,-6.603,-12.537
205.869625,-5.81,-6.632,-11.973
205.880294,-4.9,-6.068,-10.737
205.890963,-4.9,-4.632,-9.204
205.901632,-5.11,-3.01,-6.715
205.912301,-6.72,-1.391,-3.799
205.92297,-8.47,-0.016,0.495
205.933639,-9.94,2.251,4.164
205.944308,-9.24,3.772,5.214
205.954977,-8.33,5.276,5.551
205.965646,-7,6.343,5.952
205.976311,-6.37,6.688,6.013
205.986976,-5.39,6.108,6.479
205.997641,-4.2,5.402,6.852
206.008306,-3.5,4.677,8.146
206.018971,-2.8,4.077,9.533
206.029636,-2.87,3.517,10.287
206.040301,-2.52,3.509,9.93
206.050966,-1.19,3.833,8.495
206.061631,0.28,5.564,6.739
206.072296,1.61,7.669,4.48
206.082961,4.97,10.292,0.891
206.093626,7.98,13.41,-1.474
206.104291,6.72,15.948,-2.164
206.11499,2.1,18.361,-2.946
206.125689,-3.64,19.577,-3.798
206.136388,-7.98,20.173,-4.759
206.147087,-11.2,20.761,-6.077
206.157786,-12.32,21.997,-6.641
206.168485,-9.24,23.988,-7.854
206.179184,-3.85,26.494,-9.971
206.189883,2.17,30.151,-12.169
206.200582,8.12,33.967,-12.847
206.211281,12.81,37.324,-12.539
206.22198,14.28,40.094,-12.122
206.232679,14.63,42.669,-10.602
206.243363,16.03,43.294,-10.918
206.254047,19.11,44.847,-8.441
206.264731,20.02,45.78,-6.073
206.275415,18.76,46.304,-2.995
206.286099,14.49,46.6,0.967
206.296783,10.92,46.836,4.065
206.307467,9.73,46.276,6.027
206.318151,14.28,46.054,7.694
206.328835,21.07,46.196,8.501
206.339519,27.51,47.003,8.359
206.350203,29.89,47.525,4.186
206.360887,28.42,47.006,0.683
206.371571,24.71,44.264,-1.507
206.382244,20.02,41.076,-3.988
206.392917,16.03,37.216,-5.877
206.40359,13.86,32.857,-7.356
206.414263,11.76,28.554,-8.755
206.424936,9.59,23.882,-10.076
206.435609,8.12,19.941,-10.7
206.446282,5.88,16.583,-12.216
206.456955,2.31,14.004,-13.31
206.467628,-1.68,11.737,-13.355
206.478301,-5.74,10.071,-13.578
206.488974,-9.73,7.982,-13.022
206.499647,-12.81,5.983,-12.166
206.51032,-14.56,3.307,-10.292
206.520997,-15.75,0.948,-9.002
206.531674,-16.8,-2.012,-7.534
206.542351,-17.64,-5.252,-6.897
206.553028,-16.38,-7.916,-7.509
206.563705,-15.12,-10.021,-7.667
206.574382,-13.58,-11.898,-7.5
206.585059,-13.16,-13.163,-6.373
206.595736,-11.34,-14.368,-5.59
206.606413,-8.96,-15.71,-6.04
206.61709,-6.72,-17.092,-4.649
206.627767,-7.28,-18.848,-2.755
206.638444,-8.75,-19.918,-0.314
206.649125,-11.41,-21.155,2.667
206.659806,-14.28,-22.549,6.544
206.670487,-14.07,-23.428,10.725
206.681168,-12.81,-23.894,13.77
206.691849,-10.57,-24.385,14.536
206.70253,-8.05,-24.036,14.171
206.713211,-4.69,-24.194,12.651
206.723892,-2.31,-23.874,10.433
206.734573,-0.98,-23.084,8.369
206.745254,-1.33,-22.014,7.136
206.755935,-1.82,-21.734,5.55
206.766616,-3.01,-21.231,4.715
206.777308,-4.34,-20.08,4.634
206.788,-6.72,-18.746,3.518
206.798692,-10.22,-16.759,2.731
206.809384,-12.53,-13.913,1.101
206.820076,-14.49,-11.666,-0.351
206.830768,-14.49,-9.821,-1.945
206.84146,-16.24,-9.542,-3.531
206.852152,-15.68,-11.849,-2.942
206.862844,-14.07,-14.671,-3.866
206.873536,-12.46,-17.648,-3.112
206.884228,-12.04,-21.65,-2.183
206.89492,-11.76,-26.723,-1.229
206.905612,-11.97,-32.541,0.73
206.916335,-13.37,-37.606,3.249
206.927058,-16.31,-41.389,5.354
206.937781,-23.38,-43.367,7.706
206.948504,-31.36,-44.032,9.864
206.959227,-37.73,-44.105,10.277
206.96995,-44.03,-44.267,10.391
206.980673,-49.77,-45.714,13.761
206.991396,-52.99,-46.574,14.604
207.002119,-53.55,-47.851,15.801
207.012842,-53.06,-48.82,18.473
207.023565,-52.85,-50.166,19.657
207.034288,-52.29,-52.075,20.813
207.044992,-51.31,-53.807,22.569
207.055696,-49.07,-54.792,23.32
207.0664,-46.69,-54.634,22.424
207.077104,-44.17,-53.62,21.11
207.087808,-40.67,-51.804,18.871
207.098512,-38.5,-50.077,16.332
207.109216,-36.19,-47.96,15.213
207.11992,-31.85,-46.254,12.386
207.130624,-27.3,-45.013,8.98
207.141328,-22.54,-43.753,4.653
207.152032,-19.88,-41.474,2.212
207.162736,-19.46,-39.641,0.687
207.17344,-20.79,-38.652,-0.489
207.184153,-22.26,-37.861,-0.137
207.194866,-23.24,-37.229,-0.096
207.205579,-24.29,-36.637,-0.632
207.216292,-22.89,-35.299,-0.964
207.227005,-19.53,-33.604,-1.305
207.237718,-16.17,-30.518,-1.472
207.248431,-11.06,-26.735,-2.368
207.259144,-3.43,-22.206,-4.271
207.269857,2.66,-16.772,-5.658
207.28057,6.86,-11.399,-5.493
207.291283,7.91,-5.248,-3.697
207.301996,6.72,-0.625,-0.892
207.31274,6.3,4.27,3.596
207.323484,7.91,10.552,6.268
207.334228,11.27,17.214,6.376
207.344972,14.35,23.451,5.272
207.355716,15.82,27.728,3.183
207.36646,16.03,29.829,2.559
207.377204,16.38,29.257,3.382
207.387948,16.94,25.851,4.558
207.398692,18.62,21.245,4.883
207.409436,21.28,17.591,4.239
207.42018,23.03,16.062,1.624
207.430924,22.68,17.286,-1.288
207.441681,20.02,20.866,-3.855
207.452438,17.5,25.383,-5.689
207.463195,14.84,31.693,-5.998
207.473952,11.62,38.992,-5.066
207.484709,8.54,46.235,-3.007
207.495466,5.18,53.003,0.532
207.506223,1.12,59.349,3.641
207.51698,-3.78,65.521,5.725
207.527737,-8.19,71.15,6.859
207.538494,-10.85,76.296,6.7
207.549251,-12.46,79.957,5.285
207.560008,-14.14,81.664,2.458
207.570765,-17.5,80.029,-1.171
207.581522,-20.51,74.976,-4.763
207.592279,-23.1,66.845,-9.04
207.603016,-24.99,56.334,-12.315
207.613753,-26.39,44.603,-15.521
207.62449,-27.23,31.78,-18.99
207.635227,-26.81,18.293,-22.719
207.645964,-24.99,5.11,-25.754
207.656701,-23.52,-6.889,-27.443
207.667438,-23.03,-19.293,-26.432
207.678175,-22.47,-30.549,-22.659
207.688912,-22.75,-39.835,-20.387
207.699649,-23.24,-48.89,-18.216
207.710364,-26.46,-55.973,-15.129
207.721079,-29.68,-60.973,-13.381
207.731794,-31.85,-64.216,-9.901
207.742509,-31.92,-65.221,-5.814
207.753224,-31.5,-64.827,-2.404
207.763939,-31.43,-62.208,0.475
207.774654,-29.68,-60.265,3.163
207.785369,-27.58,-59.109,3.865
207.796084,-26.53,-57.751,3.82
207.806799,-24.57,-57.556,2.717
207.817514,-23.31,-57.577,0.012
207.828229,-23.24,-58.096,-1.075
207.838944,-24.15,-59.357,-0.373
207.849677,-26.81,-61.928,1.306
207.86041,-29.12,-64.863,3.845
207.871143,-31.43,-66.659,5.163
207.881876,-33.11,-65.735,5.966
207.892609,-33.25,-63.456,4.733
207.903342,-35.91,-62.82,0.722
207.914075,-40.53,-65.488,0.536
207.924808,-48.02,-71.234,-0.335
207.935541,-51.66,-77.673,-0.902
207.946274,-52.57,-82.937,-4.104
207.957007,-52.43,-85.464,-7.109
207.967712,-48.44,-85.622,-8.629
207.978417,-44.31,-84.576,-10.933
207.989122,-39.55,-82.667,-10.88
207.999827,-34.23,-78.473,-7.653
208.010532,-31.43,-72.232,-4.349
208.021237,-30.73,-66.409,-1.901
208.031942,-26.53,-59.807,3.386
208.042647,-23.31,-53.367,6.37
208.053352,-19.67,-46.866,10.217
208.064057,-15.47,-40.459,14.19
208.074762,-11.76,-33.075,14.639
208.085467,-10.36,-24.786,13.186
208.096172,-13.09,-18.663,13.129
208.106861,-23.38,-14.62,15.192
208.11755,-31.64,-14.109,18.339
208.128239,-37.52,-14.267,20.443
208.138928,-40.74,-14.478,19.624
208.149617,-40.39,-12.933,15.703
208.160306,-37.87,-11.146,10.403
208.170995,-35,-9.743,6.883
208.181684,-31.92,-8.138,5.033
208.192373,-29.54,-5.109,4.786
208.203062,-28.07,-2.234,5.008
208.213751,-25.97,0.427,6.046
208.22444,-24.08,4.185,5.287
