Time,GyroscopeX,GyroscopeY,GyroscopeZ
80.009739,0.56,-0.928,2.04
80.020492,0.35,-0.709,3.216
80.031245,-0.28,-0.831,2.697
80.041998,-0.21,-0.79,2.064
80.052751,-0.98,-0.847,1.983
80.063504,-2.17,-1.228,2.129
80.074257,-3.01,-1.642,2.056
80.08501,-3.64,-1.849,2.02
80.095763,-4.9,-1.756,1.894
80.106516,-5.74,-1.999,2.064
80.117269,-6.37,-2.181,1.89
80.128022,-6.79,-2.226,1.74
80.138775,-7.07,-2.287,2.085
80.149504,-7.77,-2.461,2.267
80.160233,-8.61,-2.494,2.048
80.170962,-9.1,-2.863,2.125
80.181691,-9.31,-2.323,2.291
80.19242,-10.29,-2.206,2.028
80.203149,-10.71,-1.975,1.926
80.213878,-11.62,-1.999,2.064
80.224607,-12.11,-2.242,2.235
80.235336,-12.88,-2.372,2.567
80.246065,-13.3,-2.116,2.328
80.256794,-13.79,-2.206,2.028
80.267523,-14,-2.181,1.89
80.278213,-13.93,-2.043,1.914
80.288903,-14.77,-2.137,2.04
80.299593,-15.26,-2.4,1.922
80.310283,-15.75,-2.733,1.793
80.320973,-16.17,-2.777,1.643
80.331663,-16.73,-3.013,0.961
80.342353,-17.29,-3.07,0.88
80.353043,-17.57,-3.09,0.592
80.363733,-17.64,-2.984,0.398
80.374423,-17.57,-3.216,0.499
80.385113,-17.43,-2.997,0.467
80.395803,-17.36,-2.843,-0.004
80.406493,-17.57,-2.725,-0.267
80.417139,-17.64,-2.628,-0.819
80.427785,-17.85,-2.234,-1.034
80.438431,-18.27,-1.752,-0.949
80.449077,-18.69,-1.659,-1.074
80.459723,-18.83,-1.715,-1.155
80.470369,-18.83,-1.74,-1.018
80.481015,-18.9,-1.46,-1.395
80.491661,-18.48,-1.298,-1.508
80.502307,-17.78,-1.192,-1.703
80.512953,-17.71,-1.286,-1.577
80.523599,-17.29,-0.925,-2.011
80.534245,-16.94,-0.726,-2.332
80.544872,-16.87,-0.625,-2.1
80.555499,-16.8,-0.313,-2.259
80.566126,-16.59,-0.292,-1.971
80.576753,-15.96,-0.329,-1.764
80.58738,-15.96,-0.304,-1.902
80.598007,-15.75,-0.243,-1.038
80.608634,-15.61,0.077,-0.839
80.619261,-15.61,-0.154,-0.738
80.629888,-14.91,-0.101,-0.231
80.640515,-14.84,-0.199,0.32
80.651142,-14.84,-0.215,0.815
80.661769,-14.28,-0.442,0.491
80.672396,-13.37,-0.523,0.547
80.683023,-12.53,-0.58,0.466
80.69365,-11.83,-0.535,0.616
80.704277,-10.85,-0.641,0.811
80.714904,-9.66,-0.685,0.661
80.725531,-8.68,-0.888,0.199
80.736158,-8.68,-0.799,-0.71
80.746785,-8.47,-1.148,-0.345
80.757412,-7.7,-1.253,-0.15
80.768039,-6.93,-1.2,-0.851
80.778666,-6.86,-1.176,-0.989
80.789293,-7.56,-1.346,-1.233
80.799933,-9.03,-1.205,-1.634
80.810573,-11.2,-1.407,-2.096
80.821213,-13.65,-1.075,-1.967
80.831853,-14.7,-0.921,-2.437
80.842493,-15.61,-0.787,-3.195
80.853133,-16.66,-0.402,-3.767
80.863773,-18.27,0.097,-4.177
80.874413,-20.51,0.247,-4.221
80.885053,-20.3,0.417,-3.978
80.895693,-21.21,0.936,-2.891
80.906333,-23.31,1.009,-2.097
80.916973,-27.02,0.64,-2.019
80.927587,-31.22,0.044,-1.058
80.938201,-35,-0.547,-0.523
80.948815,-37.66,-0.783,0.004
80.959429,-39.48,-0.645,0.028
80.970043,-39.13,-0.511,0.479
80.980657,-37.38,0.028,0.645
80.991271,-37.24,0.487,0.868
81.001885,-37.73,0.527,1.444
81.012499,-38.78,1.067,1.61
81.023113,-40.04,0.986,1.666
81.033727,-40.67,1.055,1.679
81.044341,-40.67,0.661,1.894
81.054955,-40.32,0.467,1.788
81.06556,-39.62,0.024,1.071
81.076165,-37.94,-0.065,0.77
81.08677,-35.21,0.272,0.474
81.097375,-31.15,0.345,0.061
81.10798,-27.3,0.385,-0.572
81.118585,-23.66,0.251,-2.23
81.12919,-21.56,0.146,-3.244
81.139795,-19.11,0.081,-3.682
81.1504,-16.1,-0.333,-3.755
81.161005,-13.72,-0.597,-3.872
81.17161,-11.13,-0.929,-4.002
81.182215,-8.47,-0.791,-3.978
81.192805,-6.51,-0.771,-3.69
81.203395,-4.55,-0.487,-3.284
81.213985,-2.38,-0.369,-2.34
81.224575,-0.49,-0.292,-1.971
81.235165,1.12,-0.264,-1.326
81.245755,1.54,-0.195,-0.105
81.256345,2.52,-0.503,-0.373
81.266935,1.96,-0.316,-0.624
81.277525,2.24,-0.422,-0.43
81.288115,2.1,-0.466,-0.58
81.298705,1.82,-0.989,-0.032
81.309295,1.54,-1.407,0.321
81.319885,2.03,-1.516,0.941
81.330477,2.17,-1.265,1.127
81.341069,0.98,-1.358,1.253
81.351661,0.56,-1.184,1.071
81.362253,0.77,-0.997,0.819
81.372845,0,-0.892,0.625
81.383437,-0.63,-0.807,0.142
81.394029,-0.98,-1.261,0.702
81.404621,-1.12,-1.297,0.908
81.415213,-0.98,-1.427,1.241
81.425805,-0.56,-1.289,1.265
81.436397,-0.21,-1.233,1.346
81.446989,-0.49,-0.872,0.912
81.457599,-0.98,-0.851,1.2
81.468209,-1.54,-0.511,1.687
81.478819,-2.24,-0.288,1.229
81.489429,-3.29,-0.231,0.101
81.500039,-3.71,-0.126,-0.093
81.510649,-4.2,0.134,-0.758
81.521259,-4.62,0.243,-1.379
81.531869,-4.97,0.474,-1.48
81.542479,-5.25,0.494,-2.401
81.553089,-5.53,0.425,-2.413
81.563699,-6.02,0.758,-2.283
81.574309,-6.79,0.19,-3.094
81.584931,-6.58,0.077,-3.256
81.595553,-7.14,-0.017,-3.13
81.606175,-7.28,0.105,-3.82
81.616797,-6.72,0.222,-4.083
81.627419,-6.51,0.214,-4.44
81.638041,-6.44,0.344,-4.773
81.648663,-6.72,0.344,-4.773
81.659285,-7.07,0.372,-4.128
81.669907,-7.21,0.405,-3.909
81.680529,-7,0.498,-4.035
81.691151,-7.84,0.721,-3.285
81.701773,-7.49,0.794,-2.49
81.712395,-7.7,0.657,-2.514
81.723043,-7.28,0.689,-2.295
81.733691,-6.79,0.705,-1.582
81.744339,-6.44,0.916,-0.762
81.754987,-6.44,1.111,-0.657
81.765635,-6.23,1.075,-0.45
81.776283,-6.58,1.119,-0.3
81.786931,-7,1.026,-0.175
81.797579,-7.63,0.762,-0.292
81.808227,-8.54,0.401,0.142
81.818875,-9.8,-0.105,0.195
81.829523,-10.85,-0.308,-0.268
81.840171,-11.97,-0.499,-0.799
81.85087,-12.74,-0.803,-0.284
81.861569,-13.86,-1.16,-0.276
81.872268,-14.84,-1.484,-0.048
81.882967,-15.4,-1.577,0.077
81.893666,-16.52,-1.772,-0.028
81.904365,-16.87,-1.959,0.223
81.915064,-16.73,-2.109,0.268
81.925763,-16.52,-2.121,0.337
81.936462,-16.66,-2.579,0.114
81.947161,-16.45,-2.465,0.276
81.95786,-15.54,-2.409,0.357
81.968559,-15.19,-2.851,0.848
81.979297,-14.14,-2.899,1.124
81.990035,-12.81,-2.757,0.722
82.000773,-11.76,-2.607,0.678
82.011511,-11.13,-2.867,0.134
82.022249,-10.78,-2.774,0.008
82.032987,-9.45,-2.518,-0.231
82.043725,-9.38,-2.478,-0.863
82.054463,-9.1,-2.279,-1.184
82.065201,-8.75,-2.089,-1.861
82.075939,-7.56,-2.34,-2.047
82.086677,-7.49,-2.328,-2.116
82.097415,-7.63,-2.231,-2.668
82.108153,-6.79,-2.393,-2.554
82.118891,-6.44,-2.231,-2.668
82.129628,-6.3,-2.125,-2.863
82.140365,-6.16,-1.975,-2.907
82.151102,-5.81,-1.436,-2.741
82.161839,-6.16,-1.026,-2.242
82.172576,-6.23,-0.949,-1.873
82.183313,-6.51,-0.714,-1.192
82.19405,-6.37,-0.519,-1.087
82.204787,-6.72,-0.361,-0.774
82.215524,-7.07,-0.101,-0.231
82.226261,-7.28,0.045,0.15
82.236998,-7.56,-0.15,0.045
82.247758,-7.91,-0.203,0.746
82.258518,-9.17,-0.511,0.479
82.269278,-9.45,-0.673,0.592
82.280038,-10.29,-0.628,0.742
82.290798,-10.22,-0.762,0.292
82.301558,-10.43,-1.212,0.426
82.312318,-10.36,-1.65,0.491
82.323078,-10.57,-1.764,0.329
82.333838,-10.57,-1.995,0.43
82.344598,-10.29,-2.052,0.349
82.355358,-10.5,-2.234,0.175
82.366118,-10.08,-2.465,0.276
82.376904,-9.1,-2.242,-0.182
82.38769,-8.89,-2.255,-0.113
82.398476,-9.24,-1.955,-0.202
82.409262,-8.96,-1.78,-0.385
82.420048,-8.75,-1.768,-0.454
82.430834,-9.03,-1.663,-0.649
82.44162,-9.52,-1.249,-0.576
82.452406,-9.59,-1.334,-0.093
82.463192,-9.59,-1.164,0.15
82.473978,-9.24,-0.969,0.256
82.484764,-8.89,-0.706,0.373
82.49555,-8.61,-0.401,-0.142
82.506364,-8.47,-0.458,-0.223
82.517178,-7.91,-0.284,-0.405
82.527992,-6.93,-0.207,-0.036
82.538806,-6.37,-0.288,0.02
82.54962,-5.25,0.15,-0.045
82.560434,-3.71,0.377,-0.929
82.571248,-2.52,0.669,-1.375
82.582062,-0.77,1.411,-1.955
82.592876,0.49,2.254,-2.304
82.60369,1.68,3.008,-2.952
82.614504,1.82,3.288,-3.33
82.625318,2.45,3.495,-3.293
82.636149,2.38,3.75,-3.532
82.64698,2.94,3.799,-3.808
82.657811,2.73,3.629,-4.051
82.668642,2.52,3.17,-4.274
82.679473,2.87,2.984,-4.023
82.690304,3.22,2.635,-3.658
82.701135,3.08,1.824,-3.09
82.711966,3.08,1.115,-2.291
82.722797,3.29,0.206,-2.38
82.733628,3.43,-0.325,-2.19
82.744459,3.43,-0.795,-2.344
82.75529,3.71,-1.063,-2.035
82.766121,3.85,-1.107,-2.185
82.776952,3.5,-1.44,-2.315
82.787749,3.5,-1.999,-1.561
82.798546,3.01,-2.234,-1.034
82.809343,2.59,-2.015,-1.066
82.82014,1.96,-1.606,-0.567
82.830937,1.12,-1.837,-0.466
82.841734,0.07,-1.456,-0.612
82.852531,-0.77,-1.2,-0.851
82.863328,-1.19,-1.407,-0.888
82.874125,-1.47,-1.237,-0.645
82.884922,-1.82,-1.176,-0.989
82.895719,-2.73,-1.314,-1.014
82.906516,-3.64,-1.565,-1.2
82.917277,-4.69,-1.545,-0.912
82.928038,-5.67,-1.573,-0.349
82.938799,-6.09,-2.04,0.28
82.94956,-6.93,-2.437,0.921
82.960321,-6.79,-2.992,1.249
82.971082,-6.44,-3.07,0.88
82.981843,-6.72,-3.211,1.282
82.992604,-6.58,-3.511,1.371
83.003365,-6.37,-4.051,1.205
83.014126,-6.44,-4.371,1.006
83.024887,-6.65,-4.951,1.473
83.035648,-6.72,-5.032,1.529
83.046382,-6.65,-5.3,1.838
83.057116,-6.65,-5.543,2.008
83.06785,-6.79,-5.798,2.247
83.078584,-6.37,-5.648,2.203
83.089318,-6.72,-5.304,2.263
83.100052,-6.44,-5.462,1.951
83.110786,-6.58,-5.774,2.109
83.12152,-6.79,-6.05,2.061
83.132254,-7.14,-6.269,2.093
83.142988,-7.07,-6.881,2.341
83.153722,-7.28,-6.557,2.114
83.164456,-7.28,-6.565,1.757
83.175145,-6.3,-6.622,1.676
83.185834,-5.25,-6.322,1.586
83.196523,-5.18,-5.823,1.177
83.207212,-4.83,-5.624,0.856
83.217901,-4.69,-5.263,0.422
83.22859,-4.48,-4.902,-0.011
83.239279,-4.13,-4.696,0.025
83.249968,-3.5,-4.164,-0.166
83.260657,-3.08,-3.52,-0.194
83.271346,-3.15,-3.033,-0.535
83.282035,-2.73,-2.603,-0.957
83.292724,-3.15,-1.922,-1.192
83.303413,-2.8,-1.541,-1.338
83.314061,-2.87,-1.14,-1.196
83.324709,-3.36,-0.998,-0.389
83.335357,-3.08,-0.981,0.325
83.346005,-3.08,-0.624,0.316
83.356653,-3.22,-0.539,1.042
83.367301,-2.94,-0.227,0.884
83.377949,-3.22,0.114,1.371
83.388597,-3.71,0.584,1.525
83.399245,-3.99,0.462,1.006
83.409893,-4.2,0.491,1.65
83.420541,-4.69,0.187,2.165
83.431189,-4.55,-0.434,2.056
83.44182,-4.69,-0.421,1.987
83.452451,-4.97,-0.215,2.023
83.463082,-4.34,0.11,1.796
83.473713,-4.97,-0.012,1.277
83.484344,-4.76,-0.215,0.815
83.494975,-4.55,-0.089,0.908
83.505606,-4.76,0.126,0.093
83.516237,-4.62,0.02,0.288
83.526868,-5.46,0.146,0.381
83.537499,-6.09,0.053,0.507
83.54813,-6.72,-0.215,-0.393
83.558761,-7.21,-0.345,-0.061
83.569374,-7.28,-0.519,0.122
83.579987,-7.35,-0.738,0.154
83.5906,-7,-0.92,-0.02
83.601213,-7.56,-1.452,0.171
83.611826,-7,-1.719,0.479
83.622439,-7.14,-1.65,0.491
83.633052,-7.56,-1.812,0.604
83.643665,-7.14,-1.638,0.422
83.654278,-7.49,-1.371,0.114
83.664891,-8.19,-0.998,-0.389
83.675504,-8.82,-1.091,-0.263
83.686117,-9.52,-0.989,-0.032
83.696705,-9.8,-1.014,0.106
83.707293,-10.01,-1.034,-0.182
83.717881,-10.22,-0.933,0.049
83.728469,-10.15,-1.014,0.106
83.739057,-9.73,-0.912,0.337
83.749645,-9.31,-0.787,0.43
83.760233,-9.59,-0.961,0.612
83.770821,-8.96,-0.888,0.199
83.781409,-8.75,-0.714,0.016
83.791997,-8.47,-0.673,-0.616
83.802585,-7.98,-0.633,-0.04
83.813173,-7.77,-0.608,-0.178
83.823761,-7.7,-0.251,-0.186
83.834378,-8.19,-0.158,-0.312
83.844995,-7.98,0.13,-0.333
83.855612,-8.19,0.71,-0.799
83.866229,-8.12,0.527,-0.973
83.876846,-8.33,0.774,-0.361
83.887463,-8.75,1.168,-0.576
83.89808,-9.24,1.431,-0.458
83.908697,-9.66,1.723,-0.905
83.919314,-10.15,1.825,-0.673
83.929931,-10.22,2.222,-0.106
83.940548,-10.43,2.267,0.044
83.95117,-10.85,2.405,0.069
83.961792,-10.5,2.202,0.815
83.972414,-10.29,1.959,0.985
83.983036,-9.59,2.19,0.884
83.993658,-8.82,2.044,0.503
84.00428,-8.61,1.695,0.868
84.014902,-8.54,1.383,1.026
84.025524,-8.75,0.9,0.941
84.036146,-8.47,0.718,0.766
84.046768,-8.75,0.592,0.673
84.05739,-10.08,0.994,0.815
84.068012,-10.5,0.848,0.434
84.078634,-10.36,1.018,0.677
84.089346,-10.85,0.568,0.811
84.100058,-10.64,0.475,0.937
84.11077,-10.43,0.349,0.843
84.121482,-10.22,0.608,1.387
84.132194,-10.01,0.333,1.338
84.142906,-9.73,-0.093,1.334
84.153618,-10.08,0.195,1.314
84.16433,-9.8,-0.219,1.241
84.175042,-9.38,-0.077,0.839
84.185754,-9.87,-0.105,1.403
84.196466,-9.59,-0.044,1.058
84.207232,-9.45,-0.385,0.572
84.217998,-9.24,-0.409,0.71
84.228764,-8.61,-0.523,0.547
84.23953,-8.12,-0.511,0.479
84.250296,-8.54,-0.774,0.361
84.261062,-8.33,-0.783,0.004
84.271828,-8.82,-0.835,-0.503
84.282594,-9.45,-0.88,-0.653
84.29336,-10.01,-0.912,-0.872
84.304126,-10.5,-1.095,-1.046
84.314892,-10.71,-1.083,-1.115
84.325658,-11.06,-0.945,-1.091
84.336424,-10.5,-1.233,-1.07
84.347253,-10.43,-1.156,-0.701
84.358082,-10.5,-1.302,-1.083
84.368911,-10.22,-1.553,-1.269
84.37974,-10.01,-1.699,-1.65
84.390569,-9.17,-1.651,-1.926
84.401398,-8.96,-1.545,-2.121
84.412227,-8.82,-1.866,-2.319
84.423056,-8.47,-2.081,-2.712
84.433885,-8.26,-1.817,-2.595
84.444714,-8.61,-1.675,-2.996
84.455543,-9.1,-1.906,-2.895
84.466372,-8.82,-1.724,-2.721
84.477231,-8.96,-1.436,-2.741
84.48809,-9.45,-1.586,-2.696
84.498949,-9.94,-1.493,-2.822
84.509808,-10.01,-1.343,-2.867
84.520667,-10.01,-1.424,-2.81
84.531526,-10.01,-1.691,-2.502
84.542385,-9.52,-1.878,-2.25
84.553244,-9.24,-2.263,-1.678
84.564103,-8.89,-1.918,-1.618
84.574962,-8.82,-1.898,-1.33
84.585821,-8.47,-1.679,-1.362
84.59668,-8.26,-1.351,-2.015
84.607539,-8.12,-1.16,-1.484
84.618445,-7.98,-0.921,-1.229
84.629351,-8.19,-0.831,-0.928
84.640257,-7.91,-0.904,-0.515
84.651163,-8.05,-0.641,-0.397
84.662069,-7.84,-0.406,-0.924
84.672975,-7.84,-0.487,-0.868
84.683881,-7.63,-0.75,-0.985
84.694787,-8.19,-0.775,-0.847
84.705693,-8.54,-1.176,-0.989
84.716599,-8.47,-1.099,-0.62
84.727505,-8.47,-1.342,-0.45
84.738411,-9.17,-1.634,-0.004
84.749357,-10.22,-1.784,0.041
84.760303,-11.27,-1.91,1.156
84.771249,-11.83,-1.804,2.17
84.782195,-11.41,-1.897,2.295
84.793141,-12.25,-2.011,2.133
84.804087,-13.16,-2.088,1.764
84.815033,-13.37,-1.646,1.273
84.825979,-14,-1.78,0.823
84.836925,-14.28,-2.254,1.095
84.847871,-14.35,-2.729,1.367
84.858817,-13.93,-2.822,1.493
84.869763,-13.58,-2.907,1.975
84.88069,-12.53,-1.962,1.857
84.891617,-11.48,-0.945,1.326
84.902544,-9.24,-0.04,1.841
84.913471,-6.93,0.682,2.181
84.924398,-6.16,1.038,2.173
84.935325,-5.46,1.119,2.117
84.946252,-4.69,1.111,1.76
84.957179,-4.13,0.986,1.666
84.968106,-4.2,0.779,1.63
84.979033,-4.76,0.073,0.795
84.98996,-4.48,-0.369,0.077
85.000887,-4.97,-0.535,-0.592
85.011814,-5.25,-0.771,-1.273
85.022725,-5.32,-0.953,-1.447
85.033636,-5.18,-0.937,-1.942
85.044547,-5.39,-0.978,-2.518
85.055458,-5.18,-1.188,-2.129
85.066369,-5.18,-0.771,-1.273
85.07728,-5.32,-0.637,-0.823
85.088191,-5.53,-0.612,-0.961
85.099102,-5.67,-0.442,-0.718
85.110013,-5.67,-0.195,-0.105
85.120924,-5.6,0.158,0.312
85.131835,-6.86,0.839,0.077
85.142746,-8.12,1.318,0.588
85.153633,-8.82,1.5,0.762
85.16452,-9.1,1.732,0.661
85.175407,-9.59,1.533,0.981
85.186294,-9.31,0.986,1.666
85.197181,-9.24,0.487,2.076
85.208068,-8.75,0.118,2.153
85.218955,-8.54,-0.125,2.324
85.229842,-7.21,-0.531,1.399
85.240729,-6.72,-0.515,0.904
85.251616,-6.86,-0.418,0.353
85.262503,-6.79,-0.426,-0.004
85.27339,-7,-0.434,-0.361
85.284253,-7.28,-0.718,-0.766
85.295116,-7.42,-0.726,-1.123
85.305979,-8.54,-0.848,-1.642
85.316842,-8.47,-0.657,-1.111
85.327705,-8.47,-0.872,-1.504
85.338568,-8.33,-1.233,-1.07
85.349431,-8.33,-1.164,-1.058
85.360294,-8.19,-1.407,-0.888
85.371157,-7.84,-1.213,-0.782
85.38202,-7.91,-1.432,-0.75
85.392883,-7.28,-1.432,-0.75
85.403746,-7.91,-1.225,-0.714
85.414546,-7.56,-1.33,-0.519
85.425346,-6.86,-1.087,-0.689
85.436146,-6.93,-0.937,-0.734
85.446946,-7.56,-0.998,-0.389
85.457746,-7.42,-1.026,0.175
85.468546,-7.49,-1.293,0.483
85.479346,-7.42,-1.5,0.446
85.490146,-7.84,-1.346,-0.024
85.500946,-8.19,-1.371,0.114
85.511746,-8.4,-1.46,-0.186
85.522546,-8.54,-1.294,-0.726
85.533346,-8.47,-0.969,-0.953
85.544146,-7.98,-0.957,-1.022
85.554892,-7.49,-0.698,-0.478
85.565638,-6.79,-0.681,0.235
85.576384,-6.02,-0.624,0.316
85.58713,-5.04,-0.543,0.26
85.597876,-4.41,-0.462,0.203
85.608622,-5.11,-0.316,0.584
85.619368,-6.09,-0.373,0.503
85.630114,-5.11,-0.174,0.182
85.64086,-3.64,0.389,0.211
85.651606,-2.73,0.3,-0.089
85.662352,-1.89,0.061,-0.345
85.673098,-1.19,-0.243,1.379
85.683771,-1.05,-0.438,1.273
85.694444,-1.33,-0.86,0.844
85.705117,-1.96,-1.371,0.114
85.71579,-3.08,-2.056,-0.434
85.726463,-3.57,-2.66,-1.038
85.737136,-4.83,-3.216,-1.918
85.747809,-5.6,-3.707,-2.359
85.758482,-5.67,-3.853,-2.741
85.769155,-6.3,-3.772,-2.797
85.779828,-7.21,-3.946,-2.615
85.790501,-7.56,-3.763,-2.441
85.801174,-8.05,-3.054,-2.031
85.811847,-8.33,-2.287,-1.541
85.822453,-8.61,-1.849,-1.606
85.833059,-8.12,-1.103,-1.403
85.843665,-7.7,-0.471,-1.362
85.854271,-7.98,-0.219,-1.176
85.864877,-7.35,0.004,-0.426
85.875483,-6.86,0.118,-0.264
85.886089,-6.58,0.028,-0.564
85.896695,-6.72,0.016,-0.495
85.907301,-6.37,0.109,-0.62
85.917907,-6.3,-0.061,-0.864
85.928513,-6.37,0.065,-0.77
85.939119,-6.02,0.215,-0.815
85.949702,-6.3,0.596,-0.961
85.960285,-6.79,0.576,-1.249
85.970868,-7.28,0.742,-1.788
85.981451,-7,0.612,-1.456
85.992034,-7.14,0.462,-1.411
86.002617,-7.63,0.507,-1.261
86.0132,-8.19,0.377,-0.929
86.023783,-8.4,0.259,-0.665
86.034366,-8.96,0.215,-0.815
86.044949,-8.75,0.551,-1.111
86.055532,-9.03,0.345,-1.148
86.066115,-9.03,-0.114,-1.371
86.076655,-9.52,0.061,-1.553
86.087195,-10.01,-0.114,-1.371
86.097735,-10.5,-0.446,-1.5
86.108275,-10.22,-0.365,-1.557
86.118815,-10.85,-0.612,-0.961
86.129355,-11.2,-0.864,-1.147
86.139895,-11.48,-1.091,-1.472
86.150435,-12.04,-1.164,-1.058
86.160975,-12.04,-1.059,-1.253
86.171515,-12.25,-0.949,-1.873
86.182055,-12.25,-1.294,-1.934
86.192595,-12.11,-1.582,-1.914
86.203135,-12.46,-1.452,-2.246
86.213669,-12.25,-1.61,-2.558
86.224203,-11.13,-1.562,-2.834
86.234737,-11.27,-1.744,-3.009
86.245271,-10.78,-1.858,-3.171
86.255805,-10.29,-2.202,-3.232
86.266339,-9.66,-2.409,-3.268
86.276873,-9.17,-2.425,-2.773
86.287407,-9.45,-2.162,-2.656
86.297941,-9.8,-1.902,-2.112
86.308475,-9.66,-1.123,-1.691
86.319009,-9.31,-0.896,-1.366
86.329543,-9.1,-0.434,-0.361
86.340061,-8.68,-0.207,-0.036
86.350579,-8.4,0.041,0.576
86.361097,-7.35,0.426,1.212
86.371615,-5.6,0.487,2.076
86.382133,-4.34,0.235,1.89
86.392651,-2.59,0.244,2.246
86.403169,-1.96,-0.032,2.198
86.413687,-1.54,-0.3,1.298
86.424205,-2.03,-0.742,0.58
86.434723,-2.31,-0.965,-0.17
86.445241,-3.15,-0.75,-0.985
86.455759,-4.55,-1.205,-1.634
86.466277,-5.95,-2.02,-1.849
86.476796,-7.07,-2.49,-2.003
86.487315,-8.05,-2.843,-2.42
86.497834,-9.59,-3.589,-2.623
86.508353,-10.08,-4.096,-2.57
86.518872,-10.43,-4.477,-2.424
86.529391,-10.57,-5.073,-2.672
86.53991,-10.36,-5.203,-2.339
86.550429,-9.66,-5.572,-2.262
86.560948,-9.17,-5.953,-2.116
86.571467,-7.91,-6.152,-1.796
86.581986,-7.07,-6.659,-1.743
86.592505,-5.88,-7.096,-1.678
86.603024,-5.46,-7.397,-1.589
86.613577,-4.83,-7.952,-1.26
86.62413,-3.99,-8.345,-1.045
86.634683,-3.36,-8.301,-0.895
86.645236,-2.94,-8.41,-0.275
86.655789,-3.01,-8.082,0.281
86.666342,-2.8,-7.68,0.423
86.676895,-2.59,-7.198,0.508
86.687448,-3.08,-6.715,0.593
86.698001,-3.57,-6.245,0.747
86.708554,-3.36,-5.717,0.982
86.719107,-4.34,-5.19,1.217
86.729707,-4.83,-5.146,1.367
86.740307,-5.32,-5.231,1.85
86.750907,-6.09,-5.267,2.057
86.761507,-7.21,-4.979,2.036
86.772107,-7.91,-5.498,2.158
86.782707,-7.84,-5.291,2.194
86.793307,-7.21,-4.902,2.405
86.803907,-6.93,-4.841,2.061
86.814507,-6.93,-4.379,1.858
86.825107,-6.58,-3.941,1.793
86.835707,-6.3,-2.802,1.781
86.846307,-6.44,-2.412,1.991
86.856907,-6.44,-1.378,2.174
86.867521,-6.58,-0.815,2.202
86.878135,-6.79,-0.648,2.871
86.888749,-6.3,-0.368,3.702
86.899363,-5.46,0.09,3.925
86.909977,-5.81,0.203,4.087
86.920591,-5.88,0.155,4.363
86.931205,-5.95,0.28,4.456
86.941819,-6.37,0.199,4.513
86.952433,-6.16,0.503,3.998
86.963047,-5.53,0.471,3.779
86.973661,-5.88,0.43,3.203
86.984275,-5.95,-0.186,2.668
86.994889,-5.88,-0.713,2.433
87.005516,-5.81,-1.228,2.129
87.016143,-6.09,-1.808,2.595
87.02677,-6.58,-2.315,2.648
87.037397,-6.51,-2.911,2.401
87.048024,-7,-3.759,1.967
87.058651,-7.49,-4.091,1.837
87.069278,-7.91,-5.02,1.46
87.079905,-7.28,-5.717,0.982
87.090532,-7.63,-6.192,1.254
87.101159,-6.79,-6.2,0.897
87.111786,-8.4,-6.095,0.702
87.122413,-9.38,-6.683,0.812
87.133059,-10.08,-6.293,1.023
87.143705,-11.48,-6.569,0.974
87.154351,-12.32,-6.504,1.412
87.164997,-13.23,-6.759,1.651
87.175643,-13.93,-7.015,1.891
87.186289,-13.93,-7.432,2.243
87.196935,-13.72,-7.238,2.349
87.207581,-13.09,-7.655,2.702
87.218227,-11.9,-7.587,2.714
87.228873,-10.36,-7.063,2.166
87.239519,-10.08,-6.784,1.789
87.250165,-9.94,-6.585,1.469
87.26088,-9.31,-6.48,1.274
87.271595,-8.82,-6.281,0.954
87.28231,-7.77,-5.997,0.151
87.293025,-7.21,-5.434,0.179
87.30374,-7.91,-5.373,-0.166
87.314455,-8.68,-5.385,-0.097
87.32517,-9.17,-4.809,-0.137
87.335885,-9.8,-4.477,-0.007
87.3466,-9.24,-4.164,-0.166
87.357315,-8.89,-4.027,-0.141
87.36803,-8.12,-3.552,-0.413
87.378745,-8.05,-3.22,-0.283
87.389481,-8.12,-2.77,-0.417
87.400217,-8.75,-2.757,-0.486
87.410953,-8.89,-2.887,-0.154
87.421689,-9.66,-2.741,0.227
87.432425,-9.52,-2.899,1.124
87.443161,-9.52,-2.944,0.974
87.453897,-9.03,-2.851,0.848
87.464633,-8.4,-2.794,0.929
87.475369,-7.56,-2.745,0.653
87.486105,-7.35,-2.109,0.268
87.496841,-7.21,-1.642,-0.361
87.507577,-7.56,-1.326,-0.945
87.518313,-8.12,-0.864,-1.147
87.529062,-7.84,-0.365,-1.557
87.539811,-8.05,0.198,-1.529
87.55056,-7.77,0.482,-1.123
87.561309,-7.56,0.77,-1.144
87.572058,-7,1.366,-0.896
87.582807,-6.58,1.488,-0.377
87.593556,-6.09,1.573,0.349
87.604305,-6.09,1.638,0.786
87.615054,-5.6,2.04,0.928
87.625803,-5.67,2.502,0.725
87.636552,-5.88,2.547,0.876
87.647301,-7,2.66,1.038
87.658089,-8.26,2.847,0.786
87.668877,-9.45,2.547,0.876
87.679665,-10.01,2.514,0.657
87.690453,-11.48,2.49,0.794
87.701241,-13.51,2.084,1.078
87.712029,-14.21,1.691,1.293
87.722817,-15.19,1.691,1.293
87.733605,-15.89,1.869,0.685
87.744393,-15.82,1.942,0.271
87.755181,-15.96,1.752,-0.26
87.765969,-16.03,1.387,-0.608
87.776757,-16.17,1.447,-0.953
87.78759,-16.45,1.67,-1.411
87.798423,-17.22,1.273,-1.979
87.809256,-17.29,1.103,-2.222
87.820089,-16.87,0.827,-2.271
87.830922,-16.8,1.163,-2.567
87.841755,-17.29,0.823,-3.054
87.852588,-17.08,0.884,-3.398
87.863421,-17.15,1.094,-3.788
87.874254,-17.01,1.188,-3.913
87.885087,-16.94,0.981,-3.95
87.89592,-16.52,1.098,-4.213
87.906753,-16.31,0.964,-4.663
87.917587,-16.52,1.098,-4.213
87.928421,-16.66,1.143,-4.063
87.939255,-16.52,1.151,-3.706
87.950089,-15.75,1.5,-4.071
87.960923,-15.05,1.727,-3.747
87.971757,-14.63,1.394,-3.877
87.982591,-13.65,1.759,-3.528
87.993425,-12.81,1.836,-3.159
88.004259,-12.11,1.597,-3.415
88.015093,-11.2,1.605,-3.058
88.025927,-10.92,1.5,-2.863
88.036761,-10.22,1.24,-3.406
88.047595,-9.24,1.516,-3.358
88.058431,-9.24,1.549,-3.139
88.069267,-9.1,1.536,-3.07
88.080103,-9.38,1.48,-3.151
88.090939,-9.24,1.184,-3.487
88.101775,-9.59,1.127,-3.569
88.112611,-9.24,0.733,-3.354
88.123447,-9.31,0.725,-3.71
88.134283,-9.1,0.531,-3.816
88.145119,-8.75,0.486,-3.966
88.155955,-9.31,0.579,-4.092
88.166791,-9.31,0.49,-4.392
88.177627,-9.59,0.332,-4.704
88.188443,-9.66,0.239,-4.578
88.199259,-9.8,-0.147,-4.006
88.210075,-9.66,-0.366,-3.974
88.220891,-9.8,-0.252,-3.812
88.231707,-9.66,-0.625,-3.309
88.242523,-9.52,-0.755,-2.976
88.253339,-9.38,-0.6,-2.238
88.264155,-9.31,-0.471,-2.571
88.274971,-9.17,-0.333,-2.546
88.285787,-9.52,-0.345,-2.478
88.296603,-9.73,-0.528,-2.652
88.307419,-9.52,-0.426,-2.421
88.318235,-9.52,-0.321,-2.615
88.329027,-8.75,-0.227,-2.741
88.339819,-9.31,-0.39,-2.628
88.350611,-8.96,-0.349,-2.052
88.361403,-9.03,-0.272,-1.683
88.372195,-9.17,-0.479,-1.719
88.382987,-9.17,-0.629,-1.675
88.393779,-9.24,-0.771,-1.273
88.404571,-8.54,-0.787,-0.778
88.415363,-8.47,-0.937,-0.734
88.426155,-8.26,-1.33,-0.519
88.436947,-7.91,-1.549,-0.486
88.447739,-8.19,-1.699,-0.442
88.458488,-7.84,-1.654,-0.292
88.469237,-7.98,-1.942,-0.271
88.479986,-7.84,-1.841,-0.04
88.490735,-7.56,-1.979,-0.065
88.501484,-7.7,-1.865,0.098
88.512233,-7.07,-2.027,0.211
88.522982,-7.21,-1.922,0.016
88.533731,-7,-2.048,-0.077
88.54448,-6.72,-1.784,0.041
88.555229,-7.35,-1.833,0.317
88.565978,-7.77,-1.784,0.041
88.576727,-8.05,-1.703,-0.016
88.587476,-8.26,-1.671,0.203
88.598213,-8.12,-1.955,-0.202
88.60895,-8.68,-1.63,-0.43
88.619687,-8.19,-1.375,-0.669
88.630424,-7.63,-1.054,-0.47
88.641161,-7.98,-1.099,-0.62
88.651898,-8.05,-1.063,-0.827
88.662635,-8.05,-0.925,-0.803
88.673372,-7.84,-1.042,-0.539
88.684109,-8.19,-0.685,-0.547
88.694846,-7.49,-0.641,-0.397
88.705583,-6.93,-0.929,-0.377
88.71632,-6.58,-0.941,-0.308
88.727049,-6.09,-1.058,-0.044
88.737778,-5.67,-1.172,-0.207
88.748507,-5.81,-1.521,0.158
88.759236,-5.32,-1.776,0.398
88.769965,-5.11,-1.833,0.317
88.780694,-5.04,-1.845,0.385
88.791423,-4.76,-1.983,0.361
88.802152,-4.83,-2.157,0.544
88.812881,-4.69,-1.902,0.304
88.82361,-4.48,-2.348,0.012
88.834339,-4.06,-2.587,-0.243
88.845068,-3.57,-2.125,-0.446
88.855792,-4.13,-2.482,-0.438
88.866516,-4.13,-2.449,-0.219
88.87724,-4.41,-2.295,-0.689
88.887964,-5.25,-1.902,-0.904
88.898688,-6.3,-1.626,-0.855
88.909412,-6.58,-1.432,-0.75
88.920136,-7.21,-1.063,-0.827
88.93086,-7.28,-0.868,-0.722
88.941584,-7.42,-0.742,-0.628
88.952308,-7.77,-0.677,-0.19
88.963032,-7.77,-0.827,-0.146
88.973756,-7.7,-0.795,0.073
88.984446,-7.49,-0.718,0.442
88.995136,-7.07,-0.681,0.235
89.005826,-6.3,-0.778,0.787
89.016516,-5.67,-1.139,1.221
89.027206,-5.46,-1.602,1.424
89.037896,-5.53,-2.202,1.602
89.048586,-6.02,-2.676,1.874
89.059276,-7,-3.39,1.89
89.069966,-7.35,-4.266,2.02
89.080656,-7.77,-4.659,2.235
89.091346,-8.26,-4.703,2.085
89.102036,-9.38,-4.91,2.048
89.112726,-10.22,-5.125,1.655
89.123398,-10.43,-5.125,1.655
89.13407,-10.92,-5.239,1.493
89.144742,-11.83,-5.109,1.16
89.155414,-13.37,-4.89,1.128
89.166086,-14.35,-4.764,1.221
89.176758,-15.54,-4.768,1.647
89.18743,-15.61,-4.055,1.631
89.198102,-16.45,-3.524,1.44
89.208774,-16.24,-3.272,1.627
89.219446,-16.31,-2.891,1.48
89.230118,-16.31,-2.396,1.497
89.24079,-16.94,-2.165,1.395
89.251454,-17.43,-1.739,1.399
89.262118,-17.99,-1.589,1.355
89.272782,-17.99,-1.301,1.334
89.283446,-17.85,-0.835,1.914
89.29411,-17.29,-0.859,2.052
89.304774,-16.66,-0.803,2.133
89.315438,-15.96,-0.567,1.606
89.326102,-15.26,-0.486,1.549
89.336766,-14.07,-0.365,2.068
89.34743,-13.51,0.041,1.784
89.358094,-13.58,-0.292,1.654
89.368758,-13.23,-0.734,0.937
89.379383,-12.67,-0.71,0.799
89.390008,-12.11,-1.277,1.196
89.400633,-11.2,-1.48,1.943
89.411258,-10.08,-1.792,2.101
89.421883,-9.1,-2.157,1.752
89.432508,-7.77,-2.315,1.44
89.443133,-6.72,-2.336,1.152
89.453758,-5.67,-2.226,0.532
89.464383,-5.67,-2.255,-0.113
89.475008,-5.39,-2.575,-0.312
89.485633,-5.67,-2.599,-0.174
89.496258,-5.6,-2.624,-0.036
89.506883,-5.81,-2.705,0.021
89.517488,-6.23,-2.51,0.126
89.528093,-6.72,-2.522,0.195
89.538698,-6.65,-2.429,0.069
89.549303,-6.44,-2.218,-0.32
89.559908,-6.65,-2.494,-0.369
89.570513,-7.14,-2.234,-1.034
89.581118,-7,-2.685,-0.9
89.591723,-8.19,-2.644,-0.324
89.602328,-9.31,-2.453,0.207
89.612933,-10.01,-2.319,0.657
89.623538,-10.85,-2.003,1.282
89.634143,-10.64,-1.926,1.651
89.644748,-9.59,-2.307,1.797
89.655353,-8.12,-2.631,2.024
89.665958,-6.02,-3.337,2.397
89.676539,-1.96,-3.414,3.236
89.68712,2.03,-2.976,3.171
89.697701,5.74,-2.773,2.425
89.708282,7.91,-2.988,2.032
89.718863,10.08,-3.649,1.347
89.729444,11.55,-4.132,1.262
89.740025,10.99,-4.201,1.25
89.750606,11.34,-3.791,0.54
89.761187,12.39,-3.398,0.325
89.771768,16.31,-3.743,0.264
89.782349,21.14,-4.027,-0.141
89.79293,25.55,-4.444,0.211
89.803501,28.63,-4.785,0.933
89.814072,28.07,-4.785,0.933
89.824643,28,-5.332,0.41
89.835214,27.16,-5.798,1.039
89.845785,26.32,-5.551,1.651
89.856356,23.87,-5.871,1.453
89.866927,20.09,-6.013,1.854
89.877498,18.69,-6.958,1.972
89.888069,17.64,-7.234,3.131
89.89864,15.96,-7.286,3.833
89.909211,13.72,-6.974,3.675
89.919782,10.99,-6.35,3.358
89.930372,8.4,-5.332,2.827
89.940962,6.09,-4.854,2.13
89.951552,3.29,-4.087,1.412
89.962142,0.63,-2.952,0.617
89.972732,-1.05,-2.287,-0.332
89.983322,-2.1,-1.788,-0.742
89.993912,-1.75,-1.338,-0.876
90.004502,-1.33,-1.261,-0.507
90.015092,-0.07,-1.707,0.41
90.025682,1.33,-2.376,1.785
90.036272,2.03,-2.939,2.965
90.046862,2.73,-3.073,3.723
90.057482,2.73,-3.308,4.25
90.068102,2.38,-4.01,4.197
90.078722,2.8,-4.387,3.918
90.089342,3.29,-5.101,3.934
90.099962,2.31,-5.664,3.906
90.110582,1.33,-6.285,3.796
90.121202,0.63,-6.35,3.358
90.131822,-0.42,-6.208,2.957
90.142442,-1.47,-5.969,2.004
90.153062,-2.38,-5.64,1.351
90.163682,-3.78,-5.705,0.913
90.174302,-4.69,-4.785,0.933
90.184932,-4.48,-4.233,1.031
90.195562,-4.83,-3.917,1.655
90.206192,-5.25,-3.171,1.858
90.216822,-5.95,-2.919,2.044
90.227452,-5.74,-2.692,2.368
90.238082,-6.3,-2.291,2.51
90.248712,-6.79,-1.792,2.101
90.259342,-7.35,-1.618,1.918
90.269972,-7.7,-1.269,1.553
90.280602,-8.4,-1.293,1.691
90.291232,-9.38,-1.269,1.553
90.301862,-9.66,-1.31,0.977
90.312492,-10.36,-0.924,0.406
90.323135,-11.34,-0.916,-0.446
90.333778,-11.55,-0.511,-0.73
90.344421,-11.97,-0.337,-0.912
90.355064,-12.39,-0.3,-1.119
90.365707,-12.11,-0.256,-0.969
90.37635,-12.25,-0.288,-1.188
90.386993,-12.53,-0.256,-0.969
90.397636,-13.23,-0.004,-0.783
90.408279,-13.23,0.138,-1.184
90.418922,-13.44,0.146,-0.827
90.429565,-13.3,0.401,-1.067
90.440208,-13.51,0.539,-1.042
90.450901,-14.56,0.47,-1.054
90.461594,-15.05,0.263,-1.091
90.472287,-15.75,-0.15,-1.164
90.48298,-15.61,-0.422,-1.638
90.493673,-15.96,-0.844,-2.068
90.504366,-15.4,-1.213,-1.991
90.515059,-15.05,-1.294,-1.934
90.525752,-15.12,-1.545,-2.121
90.536445,-15.61,-1.416,-2.453
90.547138,-16.1,-1.505,-2.753
90.557831,-15.82,-1.286,-2.786
90.568524,-16.38,-0.58,-3.159
90.579255,-16.94,-0.223,-3.167
90.589986,-17.22,0.312,-2.575
90.600717,-16.87,1.078,-2.084
90.611448,-16.66,1.172,-2.21
90.622179,-16.24,1.699,-1.975
90.63291,-15.19,1.995,-1.638
90.643641,-14.28,2.214,-1.671
90.654372,-13.44,2.607,-1.886
90.665103,-12.53,2.907,-1.975
90.675834,-11.2,3.09,-1.801
90.686565,-10.43,3.077,-1.732
90.697296,-8.96,2.992,-1.249
90.708027,-7.98,3.098,-1.444
90.718792,-7.07,3.077,-1.732
90.729557,-7.42,2.814,-1.849
90.740322,-7.63,2.64,-1.667
90.751087,-7.42,2.688,-1.943
90.761852,-7.07,2.218,-2.097
90.772617,-7,1.731,-1.756
90.783382,-6.58,0.908,-2.328
90.794147,-6.16,0.235,-2.944
90.804912,-5.74,0.182,-3.451
90.815677,-5.11,-0.021,-3.913
90.826442,-4.69,-0.609,-3.803
90.837207,-4.69,-0.99,-3.657
90.847964,-4.55,-1.185,-3.763
90.858721,-4.62,-1.509,-3.536
90.869478,-4.48,-2.389,-2.98
90.880235,-4.83,-2.875,-2.639
90.890992,-5.04,-2.993,-2.376
90.901749,-5.11,-3.488,-2.392
90.912506,-5.6,-3.674,-2.141
90.923263,-5.67,-3.755,-2.084
90.93402,-6.3,-4.043,-2.063
90.944777,-6.51,-4.205,-1.95
90.955534,-7.07,-4.209,-1.524
90.966291,-7.42,-3.84,-1.601
90.977048,-8.4,-3.609,-1.703
90.987803,-8.75,-3.711,-1.934
90.998558,-8.82,-3.155,-2.262
91.009313,-9.31,-2.831,-2.489
91.020068,-10.01,-2.129,-2.437
91.030823,-9.8,-1.472,-2.534
91.041578,-9.94,-0.965,-2.587
91.052333,-10.43,-0.471,-2.571
91.063088,-10.5,-0.15,-2.372
91.073843,-10.36,0.085,-1.691
91.084598,-10.29,0.377,-0.929
91.095353,-10.36,0.746,-1.006
91.106108,-10.71,0.953,-0.969
91.116863,-10.57,1.001,-1.245
91.127618,-10.08,1.176,-1.428
91.138373,-10.29,1.151,-1.29
91.149118,-10.22,1.346,-1.184
91.159863,-10.22,1.577,-1.286
91.170608,-10.15,1.492,-2.011
91.181353,-10.57,1.241,-2.198
91.192098,-11.34,1.678,-2.263
91.202843,-11.69,1.772,-2.389
91.213588,-12.04,1.565,-2.425
91.224333,-12.88,1.735,-2.182
91.235078,-13.58,1.837,-1.951
91.245823,-14.49,1.638,-1.63
91.256588,-15.19,0.924,-1.614
91.267353,-15.61,0.377,-0.929
91.278118,-15.33,-0.073,-0.795
91.288883,-15.12,-0.515,-1.512
91.299648,-14.7,-1.249,-1.784
91.310413,-14.63,-1.679,-2.571
91.321178,-14.91,-2.393,-2.554
91.331943,-14.98,-2.531,-2.579
91.342708,-14.84,-2.669,-2.603
91.353473,-14.91,-2.815,-2.984
91.364238,-15.47,-3.066,-3.171
91.375003,-15.68,-3.147,-3.114
91.385831,-15.05,-2.961,-3.365
91.396659,-15.19,-2.693,-3.673
91.407487,-15.12,-2.876,-3.848
91.418315,-15.05,-2.36,-3.544
91.429143,-14.91,-2.016,-3.483
91.439971,-15.12,-1.996,-3.195
91.450799,-14.49,-1.683,-3.353
91.461627,-14.77,-1.213,-3.199
91.472455,-14.07,-0.88,-3.07
91.483283,-13.65,-0.629,-2.883
91.494111,-13.51,-0.422,-2.847
91.504939,-12.81,-0.284,-2.822
91.515821,-12.11,-0.175,-2.234
91.526703,-12.04,-0.329,-1.764
91.537585,-11.2,-0.134,-1.658
91.548467,-11.34,0.081,-1.265
91.559349,-10.99,-0.089,-1.508
91.570231,-10.64,0,-1.208
91.581113,-10.08,-0.11,-1.796
91.591995,-9.87,-0.012,-2.348
91.602877,-9.8,0,-2.417
91.613759,-10.08,-0.159,-2.729
91.624641,-9.87,-0.183,-2.591
91.635523,-9.03,-0.219,-2.384
91.646463,-8.75,-0.625,-2.1
91.657403,-8.68,-0.665,-1.468
91.668343,-8.4,-0.548,-1.731
91.679283,-7.77,-0.661,-1.894
91.690223,-7.42,-0.454,-1.857
91.701163,-6.93,-0.536,-1.8
91.712103,-7,-0.536,-1.8
91.723043,-7.07,-0.908,-1.297
91.733983,-6.93,-0.884,-1.435
91.744923,-7.07,-0.754,-1.768
91.755863,-7.14,-0.908,-1.297
91.766803,-7.42,-0.965,-1.379
91.777773,-7.49,-1.002,-1.172
91.788743,-8.12,-1.302,-1.083
91.799713,-8.19,-1.103,-1.403
91.810683,-8.47,-1.229,-1.496
91.821653,-8.47,-1.277,-1.22
91.832623,-8.75,-1.302,-1.083
91.843593,-9.17,-1.582,-0.705
91.854563,-9.38,-1.395,-0.957
91.865533,-9.59,-1.784,-1.168
91.876503,-9.73,-1.541,-1.338
91.887473,-9.1,-1.379,-1.451
91.898443,-9.1,-1.367,-1.52
91.909413,-9.24,-1.472,-1.326
91.920374,-9.31,-1.436,-1.533
91.931335,-9.24,-1.505,-1.545
91.942296,-9.24,-1.205,-1.634
91.953257,-9.17,-1.18,-1.772
91.964218,-9.24,-1.03,-1.816
91.975179,-9.66,-0.694,-2.113
91.98614,-9.94,-0.913,-2.08
91.997101,-10.08,-1.099,-1.829
92.008062,-10.5,-0.973,-1.735
92.019023,-10.15,-1.099,-1.829
92.029984,-10.01,-1.136,-1.622
92.040945,-10.29,-1.273,-1.646
92.051906,-10.43,-1.261,-1.715
92.062867,-9.87,-1.586,-1.488
92.073828,-10.08,-1.667,-1.431
92.084754,-10.01,-1.78,-1.593
92.09568,-10.15,-1.61,-1.35
92.106606,-9.45,-1.809,-1.03
92.117532,-8.4,-1.784,-1.168
92.128458,-8.12,-1.241,-1.427
92.139384,-7.56,-1.03,-1.816
92.15031,-6.72,-0.714,-2.4
92.161236,-6.23,-0.365,-2.765
92.172162,-6.09,0.064,-3.187
92.183088,-6.16,0.312,-3.783
92.194014,-6.3,0.794,-3.698
92.20494,-6.16,1.382,-3.808
92.215845,-6.37,1.646,-3.69
92.22675,-6.79,1.759,-3.528
92.237655,-6.51,2.128,-3.605
92.24856,-6.23,2.124,-3.179
92.259465,-6.93,1.938,-2.928
92.27037,-7,1.857,-2.871
92.281275,-6.86,1.808,-2.595
92.29218,-6.65,1.289,-2.474
92.303085,-7,1.196,-2.348
92.31399,-6.86,0.896,-2.259
92.324895,-6.86,0.628,-1.951
92.3358,-7.14,0.766,-1.926
92.346647,-7.07,0.215,-2.023
92.357494,-6.72,0.101,-2.186
92.368341,-7.14,0.15,-2.461
92.379188,-6.72,0.36,-2.851
92.390035,-6.51,0.085,-2.899
92.400882,-6.79,0.316,-3.001
92.411729,-7.28,0.348,-2.782
92.422576,-6.93,0.482,-2.332
92.433423,-7.07,0.709,-2.007
92.44427,-7.35,0.997,-2.028
92.455117,-7.63,1.297,-2.117
92.465964,-6.79,1.845,-1.594
92.476811,-7.07,2.712,-2.081
92.48762,-6.93,2.992,-2.458
92.498429,-7.35,2.956,-2.251
92.509238,-7.63,2.607,-1.886
92.520047,-8.61,2.477,-1.553
92.530856,-9.03,1.975,-0.718
92.541665,-8.89,1.642,-0.848
92.552474,-8.26,1.447,-0.953
92.563283,-8.54,0.928,-0.831
92.574092,-8.26,0.989,-1.176
92.584901,-7.77,0.499,-1.618
92.59571,-7.28,-0.029,-1.853
92.606519,-7.07,-0.248,-1.821
92.617277,-7.28,-0.268,-2.109
92.628035,-6.72,-0.471,-2.571
92.638793,-6.51,-0.734,-2.688
92.649551,-6.93,-1.079,-2.749
92.660309,-6.93,-1.083,-2.323
92.671067,-7.28,-1.44,-2.315
92.681825,-7.21,-1.703,-2.433
92.692583,-7,-1.752,-2.157
92.703341,-6.65,-2.007,-1.918
92.714099,-6.72,-2.145,-1.942
92.724857,-6.51,-2.47,-1.715
92.735615,-6.02,-2.401,-1.703
92.746322,-6.16,-2.62,-1.67
92.757029,-6.65,-2.656,-1.463
92.767736,-6.51,-3.293,-1.078
92.778443,-6.44,-3.443,-1.034
92.78915,-6.93,-3.305,-1.009
92.799857,-6.86,-3.443,-1.034
92.810564,-7.07,-3.629,-0.782
92.821271,-7.77,-3.483,-0.401
92.831978,-7.7,-3.901,-0.048
92.842685,-7.7,-3.881,0.24
92.853392,-7.98,-3.743,0.264
92.864099,-8.68,-4.144,0.122
92.874806,-8.54,-4.116,0.767
92.885476,-8.19,-4.416,0.856
92.896146,-8.61,-4.797,1.002
92.906816,-8.61,-4.44,0.994
92.917486,-7.91,-4.659,1.027
92.928156,-8.33,-5.154,1.01
92.938826,-8.82,-5.109,1.16
92.949496,-9.1,-5.068,1.736
92.960166,-9.38,-5.312,1.907
92.970836,-9.52,-5.474,2.02
92.981506,-9.94,-5.867,2.235
92.992176,-10.71,-5.823,2.385
93.002846,-10.92,-6.009,2.637
93.013439,-10.64,-5.79,2.604
93.024032,-10.5,-5.628,2.491
93.034625,-9.94,-5.944,3.075
93.045218,-9.8,-5.92,2.937
93.055811,-9.45,-6.07,2.981
93.066404,-9.1,-6.382,3.139
93.076997,-8.75,-6.889,3.192
93.08759,-8.68,-6.747,2.791
93.098183,-8.82,-6.986,2.535
93.108776,-8.96,-7.112,2.442
93.119369,-9.03,-7.295,2.268
93.129962,-9.24,-7.607,2.426
93.140555,-9.73,-7.214,2.211
93.151124,-10.36,-7.027,1.96
93.161693,-9.66,-6.447,1.493
93.172262,-9.66,-6.074,0.99
93.182831,-9.87,-5.511,1.019
93.1934,-9.38,-5.105,0.735
93.203969,-9.17,-4.635,0.889
93.214538,-8.05,-3.893,0.309
93.225107,-8.05,-3.568,0.082
93.235676,-7.28,-3.005,0.11
93.246245,-6.37,-1.934,0.085
93.256814,-5.88,-1.89,0.235
93.267383,-5.67,-1.796,0.11
93.277904,-6.23,-1.821,0.248
93.288425,-6.79,-1.65,0.491
93.298946,-7.63,-1.825,0.673
93.309467,-7.35,-1.731,0.548
93.319988,-7.84,-1.662,0.56
93.330509,-7.77,-1.675,0.629
93.34103,-7.84,-1.662,0.56
93.351551,-7.21,-1.569,0.434
93.362072,-7.28,-1.557,0.365
93.372593,-6.65,-1.707,0.41
93.383114,-6.37,-1.594,0.572
93.393635,-6.16,-1.719,0.479
93.404156,-5.95,-1.606,0.641
93.414652,-5.81,-1.825,0.673
93.425148,-5.74,-1.906,0.73
93.435644,-5.81,-1.812,0.604
93.44614,-5.6,-2.044,0.706
93.456636,-5.74,-2.194,0.75
93.467132,-6.3,-2.194,0.75
93.477628,-6.37,-2.449,0.99
93.488124,-6.44,-2.782,0.86
93.49862,-6.02,-2.895,0.698
93.509116,-5.74,-2.473,1.128
93.519612,-5.18,-2.644,0.884
93.530108,-5.39,-2.526,0.621
93.5406,-5.32,-2.295,0.519
93.551092,-5.04,-2.283,0.45
93.561584,-4.9,-1.8,0.536
93.572076,-4.83,-1.427,0.033
93.582568,-5.39,-1.46,-0.186
93.59306,-5.95,-1.245,0.207
93.603552,-5.81,-1.237,0.564
93.614044,-6.16,-1.431,0.458
93.624536,-6.72,-1.35,0.402
93.635028,-6.65,-1.111,0.657
93.64552,-6.16,-1.123,0.726
93.656012,-6.23,-1.115,1.083
93.666504,-6.58,-0.876,0.13
93.677014,-6.23,-1.119,0.3
93.687524,-6.44,-0.989,-0.032
93.698034,-6.79,-1.221,0.069
93.708544,-6.65,-0.977,-0.101
93.719054,-6.72,-1.115,-0.126
93.729564,-6.58,-0.985,-0.458
93.740074,-6.65,-0.742,-0.628
93.750584,-6.65,-0.564,-1.237
93.761094,-7,-0.625,-0.892
93.771604,-7.56,-0.535,-0.592
93.782114,-7.42,-0.393,-0.993
93.792624,-7.63,-0.325,-0.981
93.80313,-7.56,-0.43,-0.787
93.813636,-7.63,-0.369,0.077
93.824142,-8.12,-0.239,-0.255
93.834648,-8.68,-0.251,-0.186
93.845154,-8.4,-0.251,-0.186
93.85566,-7.98,0.239,0.255
93.866166,-8.4,0.154,0.738
93.876672,-8.33,-0.259,0.665
93.887178,-7.84,-0.312,0.158
93.897684,-7.7,-0.255,0.239
93.90819,-7.7,-0.474,0.272
93.918696,-7.7,-0.588,0.11
93.929202,-7.91,-0.543,0.26
93.939719,-7.42,-0.624,0.316
93.950236,-7.84,-0.754,0.649
93.960753,-8.12,-0.766,0.718
93.97127,-7.84,-0.791,0.856
93.981787,-8.12,-0.88,0.556
93.992304,-8.05,-0.92,1.188
94.002821,-8.33,-1.265,1.127
94.013338,-8.12,-1.042,0.669
94.023855,-7.7,-1.273,0.771
94.034372,-8.12,-1.573,0.86
94.044889,-8.47,-1.61,1.067
94.055406,-9.38,-1.902,1.513
94.06596,-9.94,-1.958,1.432
94.076514,-10.22,-2.027,1.42
94.087068,-10.71,-2.084,1.338
94.097622,-10.71,-2.104,1.051
94.108176,-10.36,-2.092,0.982
94.11873,-10.22,-1.825,0.673
94.129284,-9.66,-2.307,0.588
94.139838,-9.52,-2.433,0.495
94.150392,-9.03,-2.165,0.187
94.160946,-8.82,-2.303,0.163
94.1715,-8.75,-2.105,-0.158
94.182054,-8.26,-2.417,0
94.192666,-8.75,-2.79,0.503
94.203278,-8.68,-2.924,0.053
94.21389,-8.54,-2.713,-0.336
94.224502,-8.61,-2.741,-0.981
94.235114,-8.26,-2.648,-1.107
94.245726,-8.33,-2.38,-1.415
94.256338,-8.05,-2.389,-1.772
94.26695,-8.19,-2.328,-2.116
94.277562,-7.7,-2.304,-2.254
94.288174,-7.63,-2.381,-2.623
94.298786,-7.49,-2.405,-2.485
94.309398,-7.35,-1.805,-2.664
94.320088,-7.84,-1.517,-2.684
94.330778,-7.77,-1.61,-2.558
94.341468,-7.84,-1.115,-2.542
94.352158,-8.05,-1.359,-2.372
94.362848,-7.77,-1.363,-1.946
94.373538,-7.7,-1.424,-1.602
94.384228,-7.84,-1.298,-1.508
94.394918,-7.56,-1.286,-1.577
94.405608,-7.84,-1.346,-1.233
94.416298,-7.63,-1.257,-0.932
94.426988,-7.7,-1.35,-0.807
94.437678,-8.4,-1.269,-0.864
94.448395,-8.61,-1.444,-0.681
94.459112,-8.47,-1.468,-0.543
94.469829,-8.4,-1.642,-0.361
94.480546,-7.77,-1.468,-0.543
94.491263,-7.84,-1.387,-0.6
94.50198,-7.7,-0.973,-0.527
94.512697,-7.49,-0.742,-0.628
94.523414,-7.42,-0.872,-0.296
94.534131,-7.07,-0.888,0.199
94.544848,-7,-0.868,0.487
94.555565,-6.65,-0.742,0.58
94.566282,-6.37,-0.523,0.547
94.576999,-6.58,-0.332,1.079
94.587752,-6.3,-0.353,0.791
94.598505,-6.02,-0.353,0.791
94.609258,-6.16,-0.397,0.641
94.620011,-6.65,-0.065,0.77
94.630764,-6.72,-0.17,0.965
94.641517,-6.3,-0.572,0.823
94.65227,-5.95,-0.649,0.454
94.663023,-5.95,-0.835,0.706
94.673776,-6.09,-0.88,0.556
94.684529,-6.16,-0.9,0.268
94.695282,-6.44,-0.746,-0.203
94.706035,-6.65,-0.702,-0.053
94.716816,-7.35,-0.977,-0.101
94.727597,-7.77,-1.184,-0.138
94.738378,-7.49,-0.803,-0.284
94.749159,-7.63,-0.608,-0.178
94.75994,-7.98,-0.45,0.134
94.770721,-7.49,-0.43,0.422
94.781502,-7.21,-0.478,0.698
94.792283,-7.21,-0.365,-0.349
94.803064,-7,-0.162,0.114
94.813845,-6.65,0.073,-0.414
94.824626,-6.65,0.13,-0.333
94.835407,-7.07,0.418,-0.353
94.846188,-6.93,0.077,-0.839
94.856976,-7,0.012,-1.277
94.867764,-7,-0.093,-1.083
94.878552,-7.14,-0.102,-1.44
94.88934,-7.35,-0.252,-1.395
94.900128,-7,-0.195,-1.314
94.910916,-6.65,-0.126,-1.302
94.921704,-6.51,-0.288,-1.188
94.932492,-6.3,-0.389,-1.419
94.94328,-5.67,-0.377,-1.488
94.954068,-5.95,-0.296,-1.545
94.964856,-5.95,-0.446,-1.5
94.975644,-5.74,-0.783,-1.204
94.986429,-5.39,-0.844,-0.86
94.997214,-5.74,-0.912,-0.872
95.007999,-5.81,-1.099,-0.62
95.018784,-6.09,-1.006,-0.746
95.029569,-6.16,-1.269,-0.864
95.040354,-6.44,-1.399,-0.531
95.051139,-6.44,-1.582,-0.705
95.061924,-6.23,-1.65,-0.718
95.072709,-6.3,-1.63,-0.43
95.083494,-6.09,-1.569,-0.774
95.094279,-5.88,-1.545,-0.912
95.105064,-6.09,-1.407,-0.888
95.115849,-6.79,-1.326,-0.945
95.12663,-7.07,-1.087,-0.689
95.137411,-7.42,-1.18,-0.563
95.148192,-7.35,-1.379,-0.243
95.158973,-8.26,-1.492,-0.405
95.169754,-8.12,-1.423,-0.393
95.180535,-8.19,-1.537,-0.555
95.191316,-8.12,-1.318,-0.588
95.202097,-8.26,-1.342,-0.45
95.212878,-8.12,-1.375,-0.669
95.223659,-8.33,-1.188,-0.92
95.23444,-8.26,-1.2,-0.851
95.245221,-8.47,-1.099,-0.62
95.256016,-8.82,-1.144,-0.77
95.266811,-9.38,-1.387,-0.6
95.277606,-9.38,-1.294,-0.726
95.288401,-9.66,-1.269,-0.864
95.299196,-9.8,-1.144,-0.77
95.309991,-10.43,-0.994,-0.815
95.320786,-10.36,-0.706,-0.835
95.331581,-10.71,-0.718,-0.766
95.342376,-11.06,-0.815,-0.215
95.353171,-10.5,-0.726,0.085
95.363966,-10.22,-0.608,-0.178
95.374761,-9.52,-0.774,0.361
95.385546,-9.59,-0.681,0.235
95.396331,-8.75,-0.527,-0.235
95.407116,-9.17,-0.677,-0.19
95.417901,-8.75,-0.852,-0.008
95.428686,-8.33,-1.452,0.171
95.439471,-8.19,-1.354,-0.381
95.450256,-7.7,-1.432,-0.75
95.461041,-7.77,-0.957,-1.022
95.471826,-7.77,-0.783,-1.204
95.482611,-7.63,-1.038,-0.965
95.493396,-7.49,-0.71,-1.618
95.504181,-7.63,-0.458,-1.431
95.514966,-7.56,-0.365,-1.557
95.525728,-7.56,-0.288,-1.188
95.53649,-7.21,-0.349,-0.843
95.547252,-7.7,-0.28,-0.831
95.558014,-7.63,-0.329,-0.555
95.568776,-7.14,-0.406,-0.924
95.579538,-7.28,-0.304,-0.693
95.5903,-7.63,-0.272,-0.474
95.601062,-7.77,-0.329,-0.555
95.611824,-7.42,-0.211,-0.819
95.622586,-7.77,0.203,-0.746
95.633348,-7.7,-0.032,-0.219
95.64411,-7.7,-0.081,0.057
95.654872,-7.63,0.004,-0.426
95.665634,-7.63,-0.146,-0.381
95.676375,-7.14,-0.154,-0.738
95.687116,-6.65,0.316,-0.584
95.697857,-7.07,0.296,-0.872
95.708598,-7.42,0,-1.208
95.719339,-7.21,-0.045,-1.358
95.73008,-7.28,0.004,-1.634
95.740821,-7.42,-0.215,-1.602
95.751562,-7.42,-0.195,-1.314
95.762303,-7.21,-0.146,-1.59
95.773044,-7.14,-0.203,-1.671
95.783785,-7.07,-0.183,-1.383
95.794526,-7.21,-0.264,-1.326
95.805267,-7.42,-0.146,-1.59
95.815992,-6.79,-0.227,-1.533
95.826717,-7.07,-0.385,-1.845
95.837442,-6.86,-0.434,-1.569
95.848167,-7,-0.454,-1.857
95.858892,-7.07,-0.361,-1.983
95.869617,-7.14,-0.304,-1.902
95.880342,-6.86,-0.244,-2.246
95.891067,-7.07,0.012,-2.486
95.901792,-7.14,0.032,-2.198
95.912517,-6.65,0.089,-2.117
95.923242,-6.79,0.186,-1.46
95.933966,-6.72,0.219,-1.241
95.94469,-6.58,0.138,-1.184
95.955414,-6.44,0.259,-1.873
95.966138,-6.79,0.028,-1.772
95.976862,-6.02,0.13,-1.541
95.987586,-5.95,0.109,-1.829
95.99831,-5.81,0.056,-2.336
96.009034,-6.16,0.344,-2.356
96.019758,-6.37,0.17,-2.173
96.030482,-6.58,0.284,-2.011
96.041206,-6.58,-0.102,-2.648
96.05193,-7.42,-0.219,-2.384
96.062659,-7.49,-0.207,-2.453
96.073388,-7.7,-0.231,-2.315
96.084117,-8.19,-0.223,-1.959
96.094846,-8.19,-0.163,-2.303
96.105575,-8.54,-0.211,-2.027
96.116304,-8.82,-0.442,-1.926
96.127033,-8.75,-0.284,-1.614
96.137762,-9.03,-0.402,-1.35
96.148491,-9.66,-0.556,-0.88
96.15922,-9.45,-0.499,-0.799
96.169949,-9.24,-0.872,-0.296
96.180678,-9.45,-0.77,-0.065
96.191424,-9.31,-0.969,0.256
96.20217,-9.03,-0.868,0.487
96.212916,-8.68,-0.843,0.349
96.223662,-8.54,-1.002,0.037
96.234408,-8.82,-1.127,-0.057
96.245154,-8.82,-1.208,0
96.2559,-8.61,-1.273,-0.438
96.266646,-8.4,-1.217,-0.357
96.277392,-8.75,-1.148,-0.345
96.288138,-8.33,-1.358,0.045
96.298884,-8.19,-1.395,0.252
96.30963,-8.19,-1.581,0.503
96.320351,-7.98,-1.675,0.629
96.331072,-7.98,-1.849,0.811
96.341793,-7.56,-1.861,0.88
96.352514,-7.28,-1.881,0.592
96.363235,-7.14,-1.719,0.479
96.373956,-7.49,-1.675,0.629
96.384677,-6.86,-1.938,0.511
96.395398,-7.35,-1.971,0.292
96.406119,-7.49,-1.89,0.235
96.41684,-7.63,-1.914,0.373
96.427561,-8.05,-2.019,0.568
96.438282,-7.98,-2.088,0.556
96.449003,-7.91,-2.076,0.487
96.459719,-8.54,-2.068,0.844
96.470435,-8.82,-2.169,0.613
96.481151,-8.89,-1.938,0.511
96.491867,-8.26,-1.95,0.58
96.502583,-8.12,-2.275,0.807
96.513299,-7.91,-2.623,1.172
96.524015,-7.56,-3.001,0.893
96.534731,-7.21,-3.021,0.605
96.545447,-7.28,-3.236,0.211
96.556163,-6.65,-3.475,-0.044
96.566879,-6.86,-3.577,-0.275
96.577595,-6.79,-3.577,-0.275
96.588316,-6.79,-3.771,-0.381
96.599037,-6.79,-3.443,-1.034
96.609758,-6.86,-2.948,-1.017
96.620479,-6.65,-2.599,-1.382
96.6312,-6.16,-2.356,-1.553
96.641921,-6.44,-1.918,-1.618
96.652642,-6.79,-1.606,-1.776
96.663363,-6.51,-1.61,-1.35
96.674084,-6.86,-1.464,-0.969
96.684805,-6.79,-1.464,-0.969
96.695526,-7.21,-1.257,-0.932
96.706247,-7.84,-1.338,-0.876
96.716932,-7.63,-1.306,-0.657
96.727617,-8.05,-1.456,-0.612
96.738302,-8.26,-1.529,-0.198
96.748987,-8.4,-1.334,-0.093
96.759672,-8.47,-1.391,-0.174
96.770357,-8.47,-1.727,0.122
96.781042,-8.75,-1.695,0.341
96.791727,-9.1,-1.683,0.272
96.802412,-9.03,-1.865,0.098
96.813097,-9.03,-1.784,0.041
96.823782,-8.89,-1.833,0.317
96.834467,-9.31,-2.084,0.13
96.845152,-9.1,-1.805,-0.247
96.855807,-9.45,-1.805,-0.247
96.866462,-9.59,-1.59,0.146
96.877117,-9.45,-1.553,-0.061
96.887772,-9.31,-1.703,-0.016
96.898427,-8.47,-1.427,0.033
96.909082,-8.12,-1.221,0.069
96.919737,-7.56,-1.184,-0.138
96.930392,-7.07,-0.998,-0.389
96.941047,-7,-0.949,-0.665
96.951702,-6.79,-0.73,-0.697
96.962357,-7.28,-0.499,-0.799
96.973012,-7.63,-0.349,-0.843
96.983681,-7.63,-0.499,-0.799
96.99435,-7.98,-0.572,-0.385
97.005019,-7.98,-0.604,-0.604
97.015688,-8.05,-0.775,-0.847
97.026357,-8.4,-0.669,-1.042
97.037026,-8.12,-0.462,-1.006
97.047695,-8.89,-0.414,-1.281
97.058364,-8.75,-0.458,-1.431
97.069033,-8.4,-0.369,-1.131
97.079702,-7.98,-0.329,-0.555
97.090371,-8.26,-0.479,-0.511
97.10104,-8.19,-0.414,-0.073
97.111712,-7.63,-0.539,-0.166
97.122384,-7.28,-0.466,-0.58
97.133056,-7.21,-0.373,-0.706
97.143728,-6.79,-0.337,-0.912
97.1544,-7.35,-0.219,-1.176
97.165072,-7,-0.183,-1.383
97.175744,-7,-0.414,-1.281
97.186416,-7.42,-0.454,-1.857
97.197088,-7.21,-0.467,-1.788
97.20776,-6.93,-0.349,-2.052
97.218432,-6.86,-0.288,-2.396
97.229104,-6.58,-0.159,-2.729
97.239792,-5.95,-0.207,-2.453
97.25048,-5.88,-0.008,-2.774
97.261168,-6.09,0.077,-3.256
97.271856,-6.09,0.004,-2.843
97.282544,-5.74,-0.163,-2.303
97.293232,-5.74,-0.041,-1.784
97.30392,-5.53,-0.171,-1.452
97.314608,-5.46,-0.183,-1.383
97.325296,-5.32,-0.264,-1.326
97.335984,-5.46,-0.243,-1.038
97.346672,-5.46,-0.381,-1.062
97.35736,-5.95,-0.45,-1.075
97.368057,-6.3,-0.625,-0.892
97.378754,-6.58,-0.616,-0.535
97.389451,-6.86,-0.823,-0.572
97.400148,-7.14,-1.18,-0.563
97.410845,-7.42,-0.985,-0.458
97.421542,-7.91,-1.148,-0.345
97.432239,-7.63,-1.448,-0.255
97.442936,-7.49,-1.496,0.02
97.453633,-7.56,-1.658,0.134
97.46433,-8.12,-1.727,0.122
97.475027,-8.54,-1.865,0.098
97.485724,-8.61,-1.772,-0.028
97.496405,-8.61,-1.796,0.11
97.507086,-8.26,-1.805,-0.247
97.517767,-8.61,-1.723,-0.304
97.528448,-8.89,-2.149,-0.308
97.539129,-8.75,-1.918,-0.409
97.54981,-8.96,-1.642,-0.361
97.560491,-8.82,-1.618,-0.499
97.571172,-8.75,-1.504,-0.336
97.581853,-8.82,-1.598,-0.211
97.592534,-8.89,-1.541,-0.13
97.603215,-8.82,-1.367,-0.312
97.613896,-8.75,-1.302,0.126
97.624577,-9.24,-1.071,0.024
97.635258,-9.31,-1.119,0.3
97.645928,-8.82,-1.33,0.69
97.656598,-9.24,-1.468,0.665
97.667268,-9.59,-1.735,0.973
97.677938,-8.68,-1.942,0.937
97.688608,-8.4,-2.06,1.201
97.699278,-8.82,-2.08,0.913
97.709948,-8.19,-2.08,0.913
97.720618,-7.98,-2.157,0.544
97.731288,-8.05,-2.409,0.357
97.741958,-7.77,-2.684,0.309
97.752628,-8.05,-3.191,0.361
97.763298,-8.05,-3.199,0.005
97.773981,-8.19,-2.749,-0.129
97.784664,-8.96,-2.652,-0.681
97.795347,-9.03,-2.409,-0.851
97.80603,-9.17,-1.853,-1.18
97.816713,-9.1,-1.715,-1.155
97.827396,-8.75,-1.29,-1.151
97.838079,-9.17,-1.176,-0.989
97.848762,-9.17,-1.326,-0.945
97.859445,-8.75,-0.945,-1.091
97.870128,-8.89,-1.249,-0.576
97.880811,-8.61,-1.241,-0.219
97.891494,-8.54,-1.026,0.175
97.902188,-8.75,-0.953,-0.239
97.912882,-8.61,-1.034,-0.182
97.923576,-7.91,-1.091,-0.263
97.93427,-8.33,-1.517,-0.267
97.944964,-8.68,-1.658,0.134
97.955658,-8.96,-1.622,-0.073
97.966352,-9.24,-1.817,-0.178
97.977046,-8.96,-1.703,-0.016
97.98774,-9.1,-1.679,-0.154
97.998434,-9.24,-1.711,-0.373
98.009128,-8.96,-1.703,-0.016
98.019822,-8.68,-1.691,-0.085
98.030516,-8.26,-1.379,-0.243
98.041221,-8.68,-1.298,-0.3
98.051926,-8.75,-1.46,-0.186
98.062631,-9.03,-1.691,-0.085
98.073336,-9.45,-1.792,-0.316
98.084041,-9.31,-1.849,-0.397
98.094746,-9.52,-1.744,-0.592
98.105451,-10.08,-1.606,-0.567
98.116156,-10.08,-1.744,-0.592
98.126861,-10.08,-1.914,-0.835
98.137566,-10.43,-1.902,-0.904
98.148271,-9.87,-1.432,-0.75
98.158976,-9.8,-1.44,-1.107
98.169681,-9.8,-1.371,-1.095
98.180367,-9.8,-1.29,-1.151
98.191053,-10.29,-1.071,-1.184
98.201739,-10.22,-1.314,-1.014
98.212425,-10.57,-1.172,-1.415
98.223111,-10.71,-0.908,-1.297
98.233797,-11.34,-0.714,-1.192
98.244483,-11.27,-0.637,-0.823
98.255169,-11.41,-0.698,-0.478
98.265855,-11.34,-0.852,-0.008
98.276541,-11.34,-0.762,0.292
98.287227,-11.13,-0.762,0.292
98.297913,-10.71,-0.783,0.004
98.308612,-10.99,-0.714,0.016
98.319311,-10.22,-0.576,0.041
98.33001,-10.01,-0.596,-0.247
98.340709,-10.5,-0.941,-0.308
98.351408,-10.15,-0.916,-0.446
98.362107,-9.73,-0.969,-0.953
98.372806,-10.01,-0.783,-1.204
98.383505,-9.52,-0.596,-1.456
98.394204,-9.1,-0.398,-1.776
98.404903,-8.89,-0.515,-1.512
98.415602,-8.89,-0.673,-1.825
98.426301,-8.54,-0.787,-1.987
98.437024,-8.19,-0.544,-2.157
98.447747,-7.63,-0.588,-2.307
98.45847,-7.63,-0.471,-2.571
98.469193,-7.63,-0.519,-2.295
98.479916,-7.63,-0.495,-2.433
98.490639,-7.63,-0.191,-2.948
98.501362,-6.86,-0.102,-2.648
98.512085,-6.79,-0.276,-2.465
98.522808,-6.65,-0.3,-2.328
98.533531,-6.93,-0.146,-2.798
98.544254,-6.51,-0.227,-2.741
98.554977,-6.16,-0.008,-2.774
98.565695,-6.65,0.121,-3.106
98.576413,-6.86,-0.098,-3.074
98.587131,-6.72,-0.086,-3.143
98.597849,-6.86,0.166,-2.956
98.608567,-6.51,0.223,-2.875
98.619285,-6.51,0.064,-3.187
98.630003,-6.93,-0.098,-3.074
98.640721,-6.86,-0.021,-2.705
98.651439,-7.14,-0.434,-2.778
98.662157,-7.14,-0.698,-2.895
98.672875,-7.28,-0.759,-2.55
98.683593,-7.07,-1.022,-2.668
98.694311,-7,-1.221,-2.348
98.705015,-7,-1.363,-1.946
98.715719,-6.79,-1.002,-2.38
98.726423,-6.44,-1.184,-2.554
98.737127,-7.07,-1.245,-2.21
98.747831,-7.14,-1.225,-1.922
98.758535,-7.21,-1.261,-1.715
98.769239,-7.56,-1.127,-1.265
98.779943,-7.56,-1.14,-1.196
98.790647,-7.98,-1.063,-0.827
98.801351,-8.12,-1.363,-0.738
98.812055,-8.05,-1.736,-0.235
98.822759,-8.61,-1.776,0.398
98.833463,-8.54,-2.185,1.107
98.844163,-8.54,-2.867,1.343
98.854863,-8.68,-2.96,1.468
98.865563,-8.89,-3.13,1.225
98.876263,-8.61,-3.094,1.018
98.886963,-8.54,-3.451,1.026
98.897663,-8.68,-3.244,1.063
98.908363,-8.89,-3.288,0.913
98.919063,-9.52,-2.94,0.548
98.929763,-10.57,-3.134,0.442
98.940463,-10.71,-2.915,0.41
98.951163,-10.99,-2.765,0.365
98.961863,-11.41,-2.859,0.491
98.972577,-11.76,-2.867,0.134
98.983291,-11.83,-2.579,0.114
98.994005,-11.62,-2.603,0.252
99.004719,-11.27,-2.847,0.422
99.015433,-11.55,-2.664,0.596
99.026147,-10.99,-2.778,0.434
99.036861,-10.15,-2.676,0.665
99.047575,-10.64,-2.599,1.034
99.058289,-9.94,-2.429,1.278
99.069003,-9.24,-2.368,0.933
99.079717,-8.89,-2.518,0.978
99.090431,-8.33,-2.757,0.722
99.101152,-8.75,-2.721,0.515
99.111873,-7.7,-2.328,0.3
99.122594,-7.77,-2.328,0.3
99.133315,-7.42,-2.214,0.463
99.144036,-7.07,-1.902,0.304
99.154757,-7,-1.95,0.58
99.165478,-5.88,-1.675,0.629
99.176199,-5.74,-1.687,0.698
99.18692,-5.25,-1.537,0.653
99.197641,-4.9,-1.168,0.576
99.208362,-5.18,-1.512,0.515
99.219083,-5.39,-1.395,0.252
99.229804,-5.32,-1.44,0.102
99.24054,-5.95,-1.525,-0.624
99.251276,-5.81,-1.732,-0.661
99.262012,-5.74,-1.618,-0.499
99.272748,-5.74,-1.663,-0.649
99.283484,-6.09,-1.638,-0.786
99.29422,-6.72,-1.513,-0.693
99.304956,-6.72,-1.513,-0.693
99.315692,-6.86,-1.638,-0.786
99.326428,-7.21,-1.638,-0.786
99.337164,-7.07,-1.683,-0.936
99.3479,-7.98,-1.391,-1.383
99.358636,-7.56,-1.168,-1.841
99.369352,-7.56,-1.464,-2.177
99.380068,-7.91,-1.602,-2.202
99.390784,-8.12,-1.671,-2.214
99.4015,-8.19,-2.364,-1.91
99.412216,-7.49,-2.818,-1.35
99.422932,-7.49,-3.646,-1.496
99.433648,-6.86,-4.416,-1.561
99.444364,-6.23,-4.497,-1.504
99.45508,-5.88,-4.878,-1.358
99.465796,-5.53,-4.927,-1.082
99.476512,-5.25,-5.089,-0.968
99.487228,-5.46,-5.199,-0.348
99.497944,-5.32,-5.089,0.24
99.508665,-5.04,-4.967,0.759
99.519386,-4.69,-4.764,1.221
99.530107,-4.34,-4.387,1.501
99.540828,-3.71,-4.205,1.675
99.551549,-3.85,-4.038,2.344
99.56227,-4.06,-4.188,2.389
99.572991,-4.48,-3.836,2.807
99.583712,-5.04,-3.974,2.782
99.594433,-6.16,-3.897,1.943
99.605154,-6.23,-3.803,1.817
99.615875,-6.44,-3.495,2.085
99.626596,-7.07,-3.625,2.417
99.637317,-8.12,-3.41,2.811
99.648038,-8.54,-3.236,2.628
99.658722,-9.59,-2.948,2.608
99.669406,-10.22,-2.716,2.506
99.68009,-10.5,-2.372,2.567
99.690774,-10.71,-2.015,2.559
99.701458,-11.41,-1.91,2.364
99.712142,-11.9,-2.035,2.271
99.722826,-12.46,-1.999,2.064
99.73351,-12.25,-1.906,1.939
99.744194,-12.53,-1.999,2.064
99.754878,-12.67,-2.088,1.764
99.765562,-12.39,-2.218,2.097
99.776246,-12.46,-2.514,1.76
99.786896,-12.04,-2.412,1.991
99.797546,-11.76,-2.344,2.003
99.808196,-11.34,-2.1,1.833
99.818846,-10.57,-1.82,1.456
99.829496,-10.08,-1.91,1.156
99.840146,-9.73,-1.642,0.848
99.850796,-9.45,-1.362,0.471
99.861446,-9.03,-1.419,0.389
99.872096,-8.19,-1.521,0.158
99.882746,-8.05,-1.265,-0.081
99.893396,-7.63,-0.965,-0.17
99.904046,-7.42,-1.01,-0.32
99.914686,-6.86,-0.941,-0.308
99.925326,-6.72,-0.872,-0.296
99.935966,-6.86,-0.641,-0.397
99.946606,-6.23,-0.58,-0.742
99.957246,-5.88,-0.357,-1.2
99.967886,-5.81,-0.292,-0.762
99.978526,-5.39,0.012,-0.069
99.989166,-5.18,-0.036,0.207
99.999806,-5.25,-0.195,-0.105
100.010446,-4.9,-0.057,-0.081
100.021086,-4.69,0.268,-0.308
100.031726,-4.62,0.43,-0.422
100.042367,-4.34,0.442,-0.491
100.053008,-4.34,0.134,-0.758
100.063649,-4.69,-0.13,-0.876
100.07429,-4.69,0.016,-0.495
100.084931,-4.34,0.247,-0.596
100.095572,-4.9,0.194,-1.103
100.106213,-4.69,0.227,-0.884
100.116854,-4.41,0.3,-0.089
100.127495,-4.34,0.483,0.085
100.138136,-4.55,0.47,0.154
100.148777,-4.76,0.479,0.511
100.159418,-5.46,1.257,0.932
100.170083,-5.74,1.533,0.981
100.180748,-5.88,1.452,1.038
100.191413,-6.65,1.74,1.018
100.202078,-7.28,1.59,1.062
100.212743,-7.49,1.176,0.989
100.223408,-8.05,1.148,1.553
100.234073,-8.05,0.402,1.35
100.244738,-8.26,-0.357,1.217
100.255403,-8.47,-0.689,1.087
100.266068,-8.33,-1.103,1.014
100.276733,-7.98,-1.192,0.714
100.287398,-7.7,-1.938,0.511
100.29804,-7.56,-2.109,0.268
100.308682,-7.56,-2.096,0.199
100.319324,-7.21,-2.461,-0.15
100.329966,-7.14,-2.632,-0.393
100.340608,-7.28,-2.932,-0.304
100.35125,-6.79,-2.887,-0.154
100.361892,-6.37,-2.474,-0.081
100.372534,-7.07,-2.587,-0.243
100.383176,-7.28,-2.693,-0.048
100.393818,-6.72,-2.644,-0.324
100.40446,-7,-2.348,0.012
100.415102,-6.58,-2.433,0.495
100.425744,-5.88,-2.283,0.45
100.43638,-5.74,-1.971,0.292
100.447016,-5.25,-1.991,0.004
100.457652,-5.46,-1.865,0.098
100.468288,-5.81,-1.902,0.304
100.478924,-5.95,-1.841,-0.04
100.48956,-6.37,-2.255,-0.113
100.500196,-6.72,-2.729,0.159
100.510832,-7.14,-2.542,-0.093
100.521468,-7.21,-2.555,-0.024
100.532104,-7.49,-2.534,0.264
100.54274,-7.77,-2.847,0.422
100.553376,-7.28,-3.09,0.592
100.564019,-7.35,-3.057,0.811
100.574662,-7.14,-2.871,0.56
100.585305,-6.79,-2.863,-0.292
100.595948,-6.79,-2.713,-0.336
100.606591,-6.65,-3.09,-0.616
100.617234,-7.42,-2.835,-0.855
100.627877,-7.21,-2.847,-0.786
100.63852,-7.21,-2.753,-0.912
100.649163,-7.84,-2.729,-1.05
100.659806,-8.26,-2.774,-1.2
100.670449,-8.05,-2.47,-1.715
100.681092,-8.33,-2.125,-1.654
100.691724,-8.61,-1.951,-1.837
100.702356,-8.82,-1.87,-1.893
100.712988,-9.17,-1.383,-2.234
100.72362,-9.1,-1.201,-2.06
100.734252,-9.31,-1.111,-1.76
100.744884,-9.24,-0.767,-1.699
100.755516,-9.59,-0.779,-1.63
100.766148,-9.52,-0.714,-1.192
100.77678,-9.73,-0.333,-1.338
100.787412,-9.94,-0.195,-1.314
100.798044,-9.66,-0.227,-1.533
100.808676,-9.87,-0.045,-1.358
100.819308,-9.59,0.389,-0.998
100.829939,-9.8,0.478,-0.698
100.84057,-9.52,0.945,-1.326
100.851201,-9.31,1.086,-1.728
100.861832,-9.66,1.281,-1.622
100.872463,-9.52,1.224,-1.703
100.883094,-9.31,1.419,-1.598
100.893725,-9.38,1.086,-1.728
100.904356,-9.03,1.062,-1.59
100.914987,-8.68,1.143,-1.646
100.925618,-8.33,0.936,-1.683
100.936249,-8.26,0.912,-1.545
100.94688,-8.12,1.086,-1.728
100.957511,-8.26,0.721,-2.076
100.968156,-8.19,0.539,-2.251
100.978801,-8.54,0.381,-2.563
100.989446,-8.33,0.344,-2.356
101.000091,-8.54,0.255,-2.656
101.010736,-8.26,0.259,-3.082
101.021381,-8.68,0.551,-2.32
101.032026,-8.61,0.559,-1.963
101.042671,-8.47,0.409,-1.918
101.053316,-8.19,0.62,-1.099
101.063961,-7.91,0.791,-0.856
101.074606,-7.77,0.641,-0.811
101.085251,-8.05,0.268,-0.308
101.0959,-8.4,0.085,-0.483
101.106549,-8.47,-0.166,-0.669
101.117198,-8.4,-0.195,-0.105
101.127847,-8.61,-0.612,0.247
101.138496,-8.75,-1.087,0.519
101.149145,-8.4,-1.395,0.252
101.159794,-7.91,-1.719,0.479
101.170443,-8.26,-2.279,0.025
101.181092,-8.26,-2.206,-0.389
101.191741,-8.19,-2.632,-0.393
101.20239,-7.7,-2.782,-0.348
101.213039,-7.7,-2.514,-0.657
101.22369,-7.56,-2.628,-0.819
101.234341,-7.56,-2.603,-0.957
101.244992,-8.19,-2.466,-0.932
101.255643,-8.4,-2.251,-0.539
101.266294,-8.4,-1.951,-0.628
101.276945,-8.12,-1.452,-1.038
101.287596,-8.26,-1.034,-1.391
101.298247,-7.77,-1.196,-1.277
101.308898,-7.98,-0.819,-0.997
101.319549,-7.91,-0.487,-0.868
101.3302,-7.49,-0.629,-0.466
101.340851,-7.35,-0.551,-0.097
101.351502,-7.35,-0.515,-0.304
101.362162,-7.63,-0.673,-0.616
101.372822,-7.49,-0.916,-0.446
101.383482,-7.35,-1.148,-0.345
101.394142,-7.21,-1.273,-0.438
101.404802,-7.14,-1.529,-0.198
101.415462,-7.21,-1.829,-0.109
101.426122,-7.42,-2.04,0.28
101.436782,-6.86,-2.753,0.296
101.447442,-7.35,-2.603,0.252
101.458102,-7.28,-2.66,0.171
101.468762,-7.21,-2.879,0.203
101.479422,-7.07,-2.765,0.365
101.490117,-7.35,-3.207,0.856
101.500812,-7.56,-2.944,0.974
101.511507,-7.14,-2.863,0.917
101.522202,-7.14,-2.611,1.103
101.532897,-6.79,-2.563,0.828
101.543592,-6.51,-2.052,0.349
101.554287,-6.16,-1.711,-0.373
101.564982,-6.3,-2.011,-0.284
101.575677,-6.44,-1.93,-0.34
101.586372,-6.65,-1.687,-0.511
101.597067,-6.93,-1.582,-0.705
101.607762,-7,-1.557,-0.843
101.618457,-7.49,-1.606,-0.567
101.629152,-7.56,-1.306,-0.657
101.639847,-8.68,-1.071,-1.184
101.650618,-8.47,-0.965,-1.379
101.661389,-8.54,-0.921,-1.229
101.67216,-8.82,-0.722,-1.549
101.682931,-8.4,-0.637,-0.823
101.693702,-8.26,-1.192,-0.495
101.704473,-7.91,-0.949,-0.665
101.715244,-7.91,-0.694,-0.904
101.726015,-7.7,-0.771,-1.273
101.736786,-7.56,-0.722,-1.549
101.747557,-7.7,-0.827,-1.354
101.758328,-7.42,-0.641,-1.606
101.769099,-7.63,-0.917,-1.654
101.77987,-7.84,-0.892,-1.792
101.790641,-7.84,-0.686,-1.756
101.801412,-7.98,-0.775,-2.056
101.812183,-7.42,-0.637,-2.031
101.822954,-7.35,-0.568,-2.019
101.833725,-6.86,-0.686,-1.756
101.844496,-6.44,-0.88,-1.861
101.855267,-6.93,-0.937,-1.942
101.866038,-6.93,-0.819,-2.206
101.876809,-6.3,-0.649,-1.963
101.887615,-6.65,-0.775,-2.056
101.898421,-6.72,-0.592,-1.881
101.909227,-6.23,-0.479,-1.719
101.920033,-6.02,-0.71,-1.618
101.930839,-6.02,-0.779,-1.63
101.941645,-6.02,-0.641,-1.606
101.952451,-6.72,-0.56,-1.662
101.963257,-6.65,-0.608,-1.387
101.974063,-6.79,-0.815,-1.423
101.984869,-6.93,-0.612,-0.961
101.995675,-7.07,-0.681,-0.973
102.006481,-7.49,-0.694,-0.904
102.017296,-7.21,-0.499,-0.799
102.028111,-7.21,-0.491,-0.442
102.038926,-7.21,-0.353,-0.418
102.049741,-7.49,-0.519,0.122
102.060556,-7.14,-0.438,0.065
102.071371,-7,-0.608,-0.178
102.082186,-7.35,-0.799,0.499
102.093001,-7.07,-0.831,0.28
102.103816,-6.72,-0.884,0.981
102.114631,-6.72,-1.066,0.807
102.125446,-6.51,-1.229,0.921
102.136261,-6.16,-1.103,1.014
102.147076,-6.72,-1.257,1.484
102.1579,-6.65,-1.139,1.221
102.168724,-6.79,-1.533,1.436
102.179548,-6.79,-1.902,1.513
102.190372,-7.35,-1.731,1.756
102.201196,-7.35,-1.857,1.663
102.21202,-7.35,-1.914,1.582
102.222844,-7.91,-1.95,1.789
102.233668,-7.7,-1.95,1.789
102.244492,-8.4,-2.088,1.764
102.255316,-8.96,-2.08,2.121
102.26614,-8.89,-2.242,2.235
102.276964,-9.03,-2.506,2.117
102.287766,-8.82,-2.145,1.683
102.298568,-8.89,-2.052,1.557
102.30937,-9.17,-2.039,1.488
102.320172,-9.45,-2.177,1.464
102.330974,-9.1,-2.121,1.545
102.341776,-9.24,-2.246,1.452
102.352578,-9.59,-2.368,0.933
102.36338,-9.52,-2.437,0.921
102.374182,-9.24,-2.563,0.828
102.384984,-8.61,-2.628,0.39
102.395786,-8.54,-2.741,0.227
102.406588,-8.4,-2.765,0.365
102.41739,-8.68,-2.924,0.053
102.428172,-8.12,-2.725,-0.267
102.438954,-7.98,-2.839,-0.429
102.449736,-8.12,-2.388,-0.563
102.460518,-7.98,-2.194,-0.458
102.4713,-7.98,-2.311,-0.194
102.482082,-8.26,-2.405,-0.069
102.492864,-8.96,-2.461,-0.15
102.503646,-9.03,-2.705,0.021
102.514428,-8.61,-2.753,0.296
102.52521,-9.17,-2.478,0.345
102.535992,-9.87,-2.765,0.365
102.546774,-9.87,-2.709,0.446
102.557545,-9.87,-2.688,0.734
102.568316,-9.66,-2.834,0.353
102.579087,-10.01,-2.741,0.227
102.589858,-9.45,-2.603,0.252
102.600629,-9.52,-2.822,0.284
102.6114,-9.87,-2.652,0.528
102.622171,-9.73,-2.332,0.726
102.632942,-9.24,-2.307,0.588
102.643713,-9.24,-2.194,0.75
102.654484,-9.17,-2.315,0.231
102.665255,-8.26,-2.441,0.138
102.676026,-8.12,-2.21,0.037
102.686794,-7.84,-2.141,0.049
102.697562,-7.91,-2.141,0.049
102.70833,-7.84,-2.384,0.219
102.719098,-8.19,-2.636,0.033
102.729866,-8.54,-2.818,-0.142
102.740634,-8.96,-2.851,-0.36
102.751402,-8.82,-3.208,-0.352
102.76217,-9.03,-3.151,-0.271
102.772938,-9.31,-2.94,-0.661
102.783706,-9.73,-2.891,-0.936
102.794474,-9.94,-2.352,-0.77
102.805242,-9.8,-2.583,-0.669
102.816004,-9.66,-2.794,-0.279
102.826766,-9.66,-2.843,-0.004
102.837528,-9.52,-3.025,-0.178
102.84829,-9.59,-3.313,-0.158
102.859052,-8.82,-3.645,-0.287
102.869814,-8.4,-3.645,-0.287
102.880576,-7.91,-3.633,-0.356
102.891338,-7.98,-3.702,-0.368
102.9021,-8.12,-3.358,-0.308
102.912862,-8.05,-3.471,-0.47
102.923624,-8.54,-3.333,-0.446
102.934386,-8.75,-3.723,-0.656
102.945107,-9.24,-3.54,-0.482
102.955828,-9.59,-3.427,-0.32
102.966549,-10.36,-3.427,-0.32
102.97727,-10.78,-3.439,-0.251
102.987991,-10.29,-3.106,-0.121
102.998712,-10.71,-3.102,-0.547
103.009433,-10.78,-3.118,-0.052
103.020154,-10.85,-2.822,0.284
103.030875,-10.71,-2.717,0.09
103.041596,-10.85,-2.534,0.264
103.052317,-10.71,-2.664,0.596
103.063038,-10.71,-2.607,0.678
103.073759,-11.13,-2.449,0.99
103.08443,-10.71,-2.53,1.047
103.095101,-11.62,-2.457,0.633
103.105772,-11.97,-2.04,0.28
103.116443,-11.97,-1.93,-0.34
103.127114,-12.18,-1.918,-0.409
103.137785,-12.11,-2.157,-0.665
103.148456,-12.32,-2.084,-1.078
103.159127,-12.53,-2.21,-1.172
103.169798,-12.32,-2.364,-0.701
103.180469,-12.25,-2.388,-0.563
103.19114,-12.53,-2.583,-0.669
103.201811,-12.6,-2.745,-0.555
103.212486,-12.25,-3.045,-0.466
103.223161,-12.18,-2.92,-0.373
103.233836,-11.76,-3.037,-0.109
103.244511,-11.55,-2.98,-0.028
103.255186,-11.97,-2.575,-0.312
103.265861,-12.11,-2.474,-0.081
103.276536,-11.76,-2.486,-0.012
103.287211,-12.39,-2.303,0.163
103.297886,-12.39,-1.959,0.223
103.308561,-12.39,-1.902,0.304
103.319236,-12.32,-1.857,0.454
103.329911,-12.95,-1.938,0.511
103.340557,-13.09,-2.275,0.807
103.351203,-13.16,-2.348,1.221
103.361849,-12.32,-2.534,1.472
103.372495,-12.18,-3.041,1.525
103.383141,-11.41,-3.459,1.878
103.393787,-11.2,-3.909,2.012
103.404433,-10.78,-4.253,1.951
103.415079,-10.15,-4.825,1.566
103.425725,-9.52,-5.352,1.331
103.436371,-8.96,-5.604,1.144
103.447017,-8.82,-5.474,0.812
103.457663,-8.61,-5.357,0.548
103.468309,-8.12,-4.984,0.045
103.478934,-7.98,-4.432,0.143
103.489559,-8.19,-4.164,-0.166
103.500184,-8.05,-3.564,-0.344
103.510809,-8.12,-3.074,0.098
103.521434,-8.12,-2.522,0.195
103.532059,-8.12,-2.169,0.613
103.542684,-8.19,-1.954,1.006
103.553309,-7.77,-1.849,0.811
103.563934,-7.77,-1.93,0.868
103.574559,-7.35,-1.829,1.099
103.585184,-7.14,-1.946,1.363
103.595809,-7.21,-2.165,1.395
103.606411,-7.14,-2.189,1.533
103.617013,-7.49,-2.303,1.371
103.627615,-7.14,-2.615,1.529
103.638217,-7.28,-3.142,1.294
103.648819,-7.14,-3.637,1.278
103.659421,-6.72,-3.58,1.359
103.670023,-6.51,-3.556,1.221
103.680625,-6.37,-3.463,1.095
103.691227,-6.65,-3.426,0.889
103.701829,-6.72,-3.272,0.418
103.712431,-6.93,-2.972,0.329
103.723033,-7.14,-2.603,0.252
103.733635,-7.56,-2.522,0.195
103.744244,-7.35,-2.664,0.596
103.754853,-7.28,-2.668,1.022
103.765462,-7.28,-2.254,1.095
103.776071,-7.07,-2.117,1.119
103.78668,-7.28,-2.125,0.763
103.797289,-7.49,-1.906,0.73
103.807898,-7,-1.719,0.479
103.818507,-7.07,-1.245,0.207
103.829116,-6.86,-1.403,-0.105
103.839725,-6.79,-1.208,0
103.850334,-7.07,-1.395,0.252
103.860943,-7.28,-1.358,0.045
103.871578,-7.56,-1.371,0.114
103.882213,-7.7,-1.322,-0.162
103.892848,-7.7,-1.553,-0.061
103.903483,-7.56,-1.241,-0.219
103.914118,-7.35,-1.01,-0.32
103.924753,-7.28,-1.444,0.527
103.935388,-7.14,-1.602,0.215
103.946023,-7.07,-1.452,0.171
103.956658,-6.44,-1.553,-0.061
103.967293,-6.65,-1.241,-0.219
103.977928,-6.51,-1.379,-0.243
103.988563,-5.81,-1.545,0.296
103.999212,-6.23,-1.521,0.158
104.009861,-5.74,-1.622,-0.073
104.02051,-5.95,-1.618,-0.499
104.031159,-5.74,-1.237,-0.645
104.041808,-6.37,-1.383,-1.026
104.052457,-6.86,-1.407,-0.888
104.063106,-6.86,-1.314,-1.014
104.073755,-7,-1.225,-0.714
104.084404,-7.07,-1.294,-0.726
104.095053,-6.51,-1.156,-0.701
104.105702,-5.95,-1.237,-0.645
104.116351,-6.16,-1.387,-0.6
104.127,-6.58,-1.342,-0.45
104.137668,-6.51,-1.354,-0.381
104.148336,-7,-1.322,-0.162
104.159004,-7.56,-1.748,-0.166
104.169672,-7.56,-1.715,0.053
104.18034,-7.7,-1.764,0.329
104.191008,-7.42,-1.683,0.272
104.201676,-7.42,-1.61,-0.142
104.212344,-7.7,-1.565,0.008
104.223012,-7.77,-1.646,0.065
104.23368,-7.49,-1.796,0.11
104.244348,-7.35,-1.821,0.248
104.255016,-7.42,-1.646,0.065
104.265685,-7.07,-1.577,0.077
104.276354,-6.93,-1.683,0.272
104.287023,-7.07,-1.902,0.304
104.297692,-7.35,-1.821,0.248
104.308361,-7.28,-1.707,0.41
104.31903,-7,-1.614,0.284
104.329699,-7.14,-1.671,0.203
104.340368,-7.28,-1.752,0.26
104.351037,-7.49,-1.74,0.191
104.361706,-7.49,-1.784,0.041
104.372375,-7.63,-1.752,0.26
104.383044,-7.7,-1.407,0.321
104.393713,-7.14,-1.776,0.398
104.404367,-7.14,-1.707,0.41
104.415021,-7.77,-1.35,0.402
104.425675,-7.56,-1.569,0.434
104.436329,-7.42,-1.573,0.86
104.446983,-7.42,-1.342,0.758
104.457637,-7,-1.277,1.196
104.468291,-7.14,-1.338,1.541
104.478945,-7.28,-1.52,1.367
104.489599,-7,-1.772,1.18
104.500253,-6.79,-1.987,0.787
104.510907,-6.58,-1.488,0.377
104.521561,-6.72,-1.626,0.353
104.532215,-6.51,-1.545,0.296
104.542886,-6.44,-1.731,0.548
104.553557,-6.93,-1.727,0.122
104.564228,-7,-1.841,-0.04
104.574899,-6.72,-1.606,-0.567
104.58557,-7,-1.269,-0.864
104.596241,-6.79,-0.977,-1.31
104.606912,-6.51,-0.758,-1.342
104.617583,-6.23,-0.389,-1.419
104.628254,-6.02,-0.02,-1.496
104.638925,-6.16,0.555,-1.537
104.649596,-6.23,0.912,-1.545
104.660267,-6.23,1.326,-1.472
104.670972,-6.51,1.496,-1.229
104.681677,-6.37,1.525,-0.584
104.692382,-6.16,1.894,-0.661
104.703087,-6.79,2.4,-0.714
104.713792,-6.16,2.356,-0.864
104.724497,-6.65,2.096,-0.199
104.735202,-6.65,1.76,0.097
104.745907,-6.72,1.16,0.276
104.756612,-7.21,0.88,0.653
104.767317,-7.14,0.361,0.774
104.778022,-7,0.187,0.957
104.788727,-6.23,-0.353,0.791
104.799431,-6.44,-0.722,0.868
104.810135,-6.72,-1.16,0.933
104.820839,-7,-1.447,0.953
104.831543,-7.14,-1.922,1.225
104.842247,-6.86,-2.567,1.253
104.852951,-7.42,-2.867,1.343
104.863655,-7.28,-2.936,1.33
104.874359,-7.49,-3.236,1.42
104.885063,-7.77,-3.098,1.444
104.895767,-7.84,-2.992,1.249
104.906471,-7.84,-2.875,0.986
104.917175,-7.14,-2.932,0.905
104.927879,-7.49,-2.932,0.905
104.938593,-7.56,-2.851,0.848
104.949307,-7.35,-2.851,0.848
104.960021,-8.12,-2.757,0.722
104.970735,-8.54,-2.571,0.471
104.981449,-8.54,-2.409,0.357
104.992163,-8.33,-2.328,0.3
105.002877,-8.61,-2.49,0.414
105.013591,-8.75,-2.664,0.596
105.024305,-8.89,-2.79,0.503
105.035019,-8.82,-2.68,-0.117
105.045733,-8.82,-2.299,-0.263
105.056447,-8.61,-2.218,-0.32
105.06715,-8.96,-2.794,-0.279
105.077853,-9.17,-2.826,-0.498
105.088556,-9.73,-2.956,-0.166
105.099259,-9.8,-2.928,-0.729
105.109962,-10.22,-2.985,-0.811
105.120665,-9.8,-2.741,-0.981
105.131368,-9.38,-2.721,-0.693
105.142071,-9.45,-2.839,-0.429
105.152774,-8.75,-2.53,-0.162
105.163477,-8.75,-2.23,-0.251
105.17418,-8.61,-2.299,-0.263
105.184883,-8.33,-2.336,-0.056
105.195586,-8.26,-2.117,-0.089
105.206317,-7.98,-1.727,0.122
105.217048,-8.26,-1.902,0.304
105.227779,-8.47,-1.825,0.673
105.23851,-8.26,-1.792,0.892
105.249241,-7.91,-1.744,0.617
105.259972,-7.7,-1.8,0.536
105.270703,-7.77,-1.65,0.491
105.281434,-7.84,-1.476,0.308
105.292165,-7.7,-1.358,0.045
105.302896,-7.84,-1.391,-0.174
105.313627,-8.26,-1.33,-0.519
105.324358,-8.33,-1.042,-0.539
105.335072,-7.98,-1.192,-0.495
105.345786,-8.05,-0.916,-0.446
105.3565,-7.63,-0.803,-0.284
105.367214,-7.56,-0.706,-0.835
105.377928,-7.56,-0.612,-0.961
105.388642,-7.63,-0.787,-0.778
105.399356,-7.84,-0.742,-0.628
105.41007,-7.7,-0.73,-0.697
105.420784,-7.63,-0.629,-0.466
105.431498,-7.56,-0.69,-1.33
105.442212,-7.28,-0.722,-1.549
105.452926,-6.86,-0.629,-1.675
105.46364,-6.65,-0.438,-1.143
105.474355,-6.44,-0.633,-1.249
105.48507,-6.72,-0.357,-1.2
105.495785,-6.51,-0.418,-0.856
105.5065,-6.3,-0.462,-1.006
105.517215,-6.93,-0.211,-0.819
105.52793,-7.77,0.122,-0.689
105.538645,-8.12,0.223,-0.458
105.54936,-8.54,-0.182,-0.174
105.560075,-9.24,-0.105,0.195
105.57079,-9.66,-0.049,0.276
105.581505,-10.15,0.146,0.381
105.59222,-10.36,0.097,0.657
105.602925,-11.06,-0.13,0.333
105.61363,-11.13,-0.049,0.276
105.624335,-11.55,-0.126,-0.093
105.63504,-11.62,0.251,0.186
105.645745,-11.97,0.337,-0.296
105.65645,-12.11,0.572,-0.823
105.667155,-12.25,0.576,-1.249
105.67786,-12.32,0.705,-1.582
105.688565,-11.69,0.892,-0.625
105.69927,-12.04,0.856,-0.418
105.709975,-12.32,0.75,-0.223
105.72068,-12.11,0.876,-0.13
105.731385,-12.04,0.795,-0.073
105.742094,-12.32,0.503,0.373
105.752803,-12.6,0.223,0.75
105.763512,-12.95,-0.17,-0.243
105.774221,-13.65,-0.73,-0.697
105.78493,-15.33,-1.091,-0.263
105.795639,-15.82,-1.825,-0.535
105.806348,-15.54,-2.129,-0.02
105.817057,-16.94,-2.169,0.613
105.827766,-16.59,-2.283,0.45
105.838475,-16.45,-2.06,1.201
105.849184,-14.84,-1.638,1.63
105.859893,-14.91,-0.985,0.75
105.870581,-15.12,-0.831,0.28
105.881269,-14.49,-0.787,0.43
105.891957,-14.21,-0.758,1.075
105.902645,-13.58,-1.099,0.588
105.913333,-13.65,-1.472,-0.117
105.924021,-13.44,-1.521,-1.05
105.934709,-12.81,-1.318,-1.796
105.945397,-12.88,-1.363,-1.946
105.956085,-13.09,-1.647,-2.352
105.966773,-13.3,-1.529,-1.407
105.977461,-12.81,-1.772,-1.237
105.988149,-12.39,-1.683,-0.936
105.998837,-12.53,-1.707,-0.799
106.00951,-12.6,-1.131,-0.839
106.020183,-11.9,-0.876,-1.079
106.030856,-11.06,-0.75,-0.985
106.041529,-10.22,-0.325,-0.981
106.052202,-9.17,0.101,-0.977
106.062875,-8.19,0.58,-0.466
106.073548,-7.49,0.584,-0.892
106.084221,-6.58,0.778,-0.787
106.094894,-5.95,0.831,-0.28
106.105567,-5.25,0.6,-0.179
106.11624,-4.97,0.109,-0.62
106.126913,-5.32,-0.341,-1.695
106.137586,-4.69,-0.791,-1.561
106.148259,-4.69,-1.342,-1.658
106.158969,-4.9,-1.675,-1.788
106.169679,-5.46,-2.202,-2.023
106.180389,-6.44,-2.571,-1.946
106.191099,-7.42,-2.47,-1.715
106.201809,-8.4,-1.902,-2.112
106.212519,-10.22,-1.614,-2.133
106.223229,-10.85,-1.432,-1.958
106.233939,-11.62,-1.249,-1.784
106.244649,-11.55,-0.913,-2.08
106.255359,-10.71,-0.787,-1.987
106.266069,-9.73,-0.41,-1.707
106.276779,-7.98,-0.106,-1.014
106.287489,-7,0.251,-1.022
106.298199,-6.86,0.105,-1.403
106.308909,-6.86,0.052,-1.91
106.319619,-7.49,-0.248,-1.821
106.330329,-8.19,-0.463,-2.214
106.341039,-8.61,-1.221,-2.348
106.351749,-8.47,-1.845,-2.031
106.362459,-7.84,-2.506,-1.508
106.373169,-6.93,-2.948,-1.017
106.383879,-5.11,-2.433,-0.713
106.394589,-3.22,-2.457,-0.575
106.405329,-1.75,-2.133,-0.803
106.416069,-0.77,-1.026,-1.034
106.426809,-0.98,-0.544,-0.949
106.437549,-0.91,-0.341,-0.487
106.448289,-0.91,0.073,-0.414
106.459029,-1.12,0.255,-0.239
106.469769,-0.77,-0.061,0.345
106.480509,-0.28,-0.138,-0.024
106.491249,-0.07,0.016,0.714
106.501989,2.17,-0.138,1.184
106.512729,3.71,0.134,1.658
106.523469,4.27,0.434,1.569
106.534193,5.39,0.787,0.778
106.544917,6.86,1.334,0.093
106.555641,7.91,1.318,-0.621
106.566365,8.19,0.997,-0.819
106.577089,8.96,1.018,-0.531
106.587813,10.43,1.44,-0.102
106.598537,12.18,1.119,-0.3
106.609261,13.65,1.529,0.198
106.619985,13.93,1.975,0.49
106.630709,13.72,2.113,1.723
106.641433,12.6,2.072,2.356
106.652157,9.03,2.523,2.222
106.662881,6.02,1.853,2.388
106.673586,4.06,1.197,2.486
106.684291,2.31,0.665,2.676
106.694996,0.77,0.094,2.291
106.705701,0.42,-0.519,1.33
106.716406,-0.42,-0.997,0.819
106.727111,-2.45,-1.654,0.917
106.737816,-4.97,-1.991,1.213
106.748521,-6.65,-1.93,0.868
106.759226,-7.7,-2.027,0.211
106.769931,-8.4,-1.679,-0.154
106.780636,-8.54,-1.419,0.389
106.791341,-9.1,-1.476,0.308
106.802046,-9.87,-1.557,0.365
106.812751,-9.66,-1.561,0.791
106.823456,-10.01,-1.492,0.803
106.834161,-10.29,-1.387,0.608
106.844866,-11.06,-1.679,1.055
106.855571,-12.25,-2.035,1.063
106.866276,-13.51,-2.668,1.022
106.876981,-14.56,-3.122,1.582
106.887686,-14.35,-4.01,1.781
106.898391,-14.63,-4.59,2.247
106.909096,-14.98,-5.235,2.276
106.919801,-14.91,-5.51,2.227
106.930506,-14.77,-6.423,2.564
106.941189,-14.84,-6.974,2.466
106.951872,-14.21,-7.81,1.964
106.962555,-13.79,-8.292,1.879
106.973238,-13.72,-8.487,1.773
106.983921,-13.65,-8.71,2.231
106.994604,-13.3,-9.01,2.321
107.005287,-13.65,-8.341,2.154
107.01597,-13.51,-7.696,2.126
107.026653,-13.23,-7.278,1.773
107.037336,-13.09,-7.011,1.465
107.048019,-12.25,-6.386,1.148
107.058702,-11.83,-6.135,1.335
107.069385,-11.62,-5.961,1.152
107.080043,-10.85,-5.511,1.019
107.090701,-10.15,-5.142,0.941
107.101359,-9.66,-4.947,1.047
107.112017,-9.73,-4.74,1.083
107.122675,-9.45,-4.566,0.901
107.133333,-9.17,-4.509,0.982
107.143991,-8.82,-4.221,0.962
107.154649,-8.54,-4.047,0.779
107.165307,-8.47,-4.172,0.686
107.175965,-9.03,-3.917,0.447
107.186623,-9.45,-4.031,0.284
107.197281,-9.31,-3.893,0.309
107.207954,-9.8,-4.274,0.455
107.218627,-10.01,-4.241,0.674
107.2293,-10.36,-4.383,1.075
107.239973,-10.08,-4.351,1.294
107.250646,-10.08,-4.756,1.578
107.261319,-9.52,-4.663,1.452
107.271992,-9.59,-4.545,1.189
107.282665,-9.31,-4.545,1.189
107.293338,-9.8,-4.087,1.412
107.304011,-10.43,-3.974,1.574
107.314684,-10.36,-3.937,1.367
107.325357,-10.71,-3.901,1.16
107.336017,-10.85,-3.357,0.901
107.346677,-10.64,-3.066,0.455
107.357337,-9.66,-2.867,0.134
107.367997,-9.38,-2.741,0.227
107.378657,-8.82,-2.717,0.09
107.389317,-8.33,-2.129,-0.02
107.399977,-7.42,-1.873,-0.259
107.410637,-7.21,-1.541,-0.13
107.421297,-6.93,-0.993,0.393
107.431957,-7,-0.876,0.13
107.442617,-6.93,-0.527,-0.235
107.453277,-7,-0.251,-0.186
107.463937,-6.79,-0.008,-0.357
107.47462,-6.3,0.75,-0.223
107.485303,-6.51,0.657,-0.097
107.495986,-6.37,0.92,0.02
107.506669,-5.88,0.937,-0.475
107.517352,-6.02,1.002,-0.037
107.528035,-6.16,1.371,-0.114
107.538718,-6.16,1.727,-0.122
107.549401,-5.81,1.452,-0.171
107.560084,-5.53,2.214,-0.463
107.570767,-5.18,1.95,-0.58
107.58145,-5.04,1.926,-0.442
107.592133,-4.76,1.926,-0.442
107.602837,-4.62,1.975,-0.718
107.613541,-4.41,2.035,-1.063
107.624245,-3.57,2.384,-1.428
107.634949,-3.71,2.502,-1.691
107.645653,-3.57,2.088,-1.764
107.656357,-3.85,2.1,-1.833
107.667061,-3.57,1.857,-1.663
107.677765,-3.57,1.707,-1.618
107.688469,-3.71,1.48,-1.943
107.699173,-3.57,1.606,-1.849
107.709877,-3.15,1.318,-1.829
107.720581,-3.29,0.985,-1.959
107.731285,-3.01,0.77,-2.352
107.741989,-3.29,0.519,-2.538
107.752709,-3.01,0.3,-2.506
107.763429,-3.29,0.555,-2.745
107.774149,-3.43,0.36,-2.851
107.784869,-3.78,0.324,-2.644
107.795589,-4.34,0.174,-2.599
107.806309,-4.83,0.117,-2.68
107.817029,-4.83,0.069,-2.405
107.827749,-5.11,-0.142,-2.015
107.838469,-5.18,-0.256,-2.177
107.849189,-5.32,-0.203,-2.879
107.859909,-4.97,0.028,-2.98
107.870657,-4.62,0.214,-3.232
107.881405,-4.34,0.579,-2.883
107.892153,-4.9,0.673,-3.009
107.902901,-4.83,0.952,-3.386
107.913649,-5.04,0.985,-3.167
107.924397,-4.97,0.969,-3.881
107.935145,-4.55,1.119,-3.925
107.945893,-3.57,1.236,-4.189
107.956641,-3.5,1.411,-4.371
107.967389,-2.66,1.5,-4.071
107.978137,-2.66,1.281,-4.039
107.988885,-2.73,1.034,-3.443
107.99964,-2.8,0.79,-3.272
108.010395,-2.66,0.892,-3.041
108.02115,-3.08,0.511,-2.895
108.031905,-3.64,0.34,-3.139
108.04266,-3.92,0.052,-3.118
108.053415,-3.92,0.077,-3.256
108.06417,-4.2,-0.005,-3.199
108.074925,-4.27,-0.118,-3.362
108.08568,-4.41,-0.73,-3.114
108.096435,-4.27,-0.653,-2.745
108.10719,-4.27,-0.815,-2.632
108.117945,-3.92,-1.16,-2.692
108.1287,-4.06,-1.217,-2.773
108.139463,-3.85,-1.241,-2.636
108.150226,-3.71,-1.371,-2.303
108.160989,-3.43,-1.403,-2.522
108.171752,-3.36,-1.31,-2.648
108.182515,-3.29,-1.347,-2.441
108.193278,-3.29,-1.31,-2.648
108.204041,-3.36,-1.16,-2.692
108.214804,-2.94,-1.205,-2.842
108.225567,-2.94,-0.982,-3.301
108.23633,-2.66,-0.747,-3.828
108.247093,-2.87,-0.71,-4.035
108.257856,-2.94,-0.155,-4.363
108.268605,-2.94,-0.167,-4.294
108.279354,-2.87,-0.463,-4.631
108.290103,-2.94,0.113,-4.671
108.300852,-3.15,0.348,-3.99
108.311601,-3.01,0.255,-3.864
108.32235,-3.15,0.393,-3.84
108.333099,-2.73,0.587,-3.735
108.343848,-2.73,0.981,-3.95
108.354597,-2.94,0.997,-3.236
108.365346,-3.15,1.309,-3.394
108.376095,-3.29,1.171,-3.419
108.386844,-3.57,1.593,-2.989
108.397593,-3.57,1.22,-2.486
108.408353,-3.71,1.03,-1.809
108.419113,-3.64,0.738,-1.363
108.429873,-3.99,0.941,-0.9
108.440633,-3.71,0.949,-0.544
108.451393,-3.85,0.868,-0.487
108.462153,-3.85,0.572,-0.823
108.472913,-3.99,0.134,-0.758
108.483673,-3.99,0.178,-0.608
108.494433,-4.76,-0.093,-1.083
108.505193,-4.9,-0.138,-1.233
108.515953,-5.32,-0.345,-1.269
108.526713,-5.39,-0.422,-1.638
108.537442,-6.23,-0.767,-1.699
108.548171,-6.44,-1.221,-1.139
108.5589,-7.42,-1.371,-1.095
108.569629,-7.14,-1.213,-0.782
108.580358,-7.21,-1.513,-0.693
108.591087,-7.21,-1.452,-1.038
108.601816,-7.21,-1.752,-0.949
108.612545,-7.35,-1.906,-0.478
108.623274,-7.21,-2.206,-0.389
108.634003,-7.14,-2.149,-0.308
108.644732,-7.07,-2.068,-0.365
108.655461,-7.14,-2.101,-0.584
108.66619,-7.21,-2.149,-0.308
108.676903,-7.63,-2.011,-0.284
108.687616,-8.05,-1.906,-0.478
108.698329,-8.05,-1.642,-0.361
108.709042,-7.91,-1.436,-0.324
108.719755,-8.05,-1.517,-0.267
108.730468,-8.26,-1.318,-0.588
108.741181,-7.91,-1.03,-0.608
108.751894,-7.91,-1.079,-0.332
108.762607,-7.77,-1.221,0.069
108.77332,-7.7,-1.083,0.093
108.784033,-7.42,-1.014,0.106
108.794746,-6.58,-0.912,0.337
108.805441,-6.65,-0.73,0.511
108.816136,-6.79,-0.612,0.247
108.826831,-6.79,-0.762,0.292
108.837526,-7.07,-0.547,0.685
108.848221,-7.14,-0.616,0.673
108.858916,-7,-0.665,0.949
108.869611,-7.28,-0.758,1.075
108.880306,-7.07,-0.965,1.038
108.891001,-7.91,-0.989,1.176
108.901696,-8.05,-0.872,0.912
108.912391,-7.84,-1.058,1.164
108.923086,-8.61,-1.334,1.115
108.933781,-9.31,-1.934,1.294
108.944462,-9.24,-1.971,1.501
108.955143,-8.61,-2.177,1.464
108.965824,-8.82,-1.991,1.213
108.976505,-8.75,-2.173,1.038
108.987186,-8.68,-2.53,1.047
108.997867,-8.54,-2.936,1.33
109.008548,-8.68,-3.199,1.213
109.019229,-8.26,-3.426,0.889
109.02991,-8.12,-3.183,0.718
109.040591,-8.54,-3.216,0.499
109.051272,-8.61,-3.483,0.807
109.061953,-8.47,-3.653,0.564
109.072598,-9.31,-4.01,0.572
109.083243,-9.38,-3.966,0.722
109.093888,-9.31,-3.937,0.159
109.104533,-9.8,-3.95,0.228
109.115178,-9.8,-3.536,0.301
109.125823,-9.8,-3.787,0.114
109.136468,-9.8,-4.075,0.134
109.147113,-10.15,-3.856,0.102
109.157758,-10.08,-3.617,0.357
109.168403,-9.94,-3.791,0.54
109.179048,-9.8,-3.998,0.503
109.189693,-10.08,-3.897,0.734
109.200338,-9.24,-4.035,0.71
109.210992,-9.8,-4.026,1.067
109.221646,-10.01,-3.775,1.254
109.2323,-9.8,-4.233,1.031
109.242954,-9.87,-4.095,1.055
109.253608,-10.01,-4.197,0.824
109.264262,-9.8,-4.355,0.512
109.274916,-9.94,-4.071,0.917
109.28557,-9.52,-3.807,1.035
109.296224,-9.31,-3.901,1.16
109.306878,-9.31,-4.014,0.998
109.317532,-8.89,-3.751,1.116
109.328186,-8.61,-3.593,1.428
109.338812,-8.33,-3.442,1.383
109.349438,-7.77,-3.674,1.485
109.360064,-7.7,-3.142,1.294
109.37069,-7.7,-2.992,1.249
109.381316,-7.49,-2.818,1.067
109.391942,-7.42,-2.713,0.872
109.402568,-7.21,-2.607,0.678
109.413194,-7.84,-2.457,0.633
109.42382,-7.56,-2.619,0.746
109.434446,-7.98,-2.181,0.682
109.445072,-8.12,-2.295,0.519
109.455698,-7.77,-2.181,0.682
109.466324,-8.26,-1.898,1.087
109.476949,-7.84,-1.687,0.698
109.487574,-8.05,-1.618,0.71
109.498199,-8.4,-1.537,0.653
109.508824,-8.33,-1.5,0.446
109.519449,-8.33,-1.314,0.195
109.530074,-8.75,-1.293,0.483
109.540699,-8.54,-1.456,0.596
109.551324,-8.54,-1.837,0.742
109.561949,-8.4,-1.788,0.467
109.572574,-8.82,-1.865,0.098
109.583199,-8.47,-1.723,-0.304
109.593824,-8.12,-1.748,-0.166
109.604432,-7.63,-1.861,-0.328
109.61504,-7.56,-1.642,-0.361
109.625648,-7.42,-1.93,-0.34
109.636256,-7.49,-1.845,-0.823
109.646864,-7.63,-1.902,-0.904
109.657472,-7.56,-1.857,-0.754
109.66808,-7.84,-1.719,-0.73
109.678688,-7.49,-1.719,-0.73
109.689296,-7.42,-2.007,-0.709
109.699904,-7.84,-2.194,-0.458
109.710512,-7.42,-2.088,-0.653
109.72112,-7.21,-1.906,-0.478
109.731728,-7.42,-2.405,-0.069
109.742341,-7.14,-2.838,0.779
109.752954,-7.28,-3.718,1.335
109.763567,-6.79,-4.854,2.13
109.77418,-6.3,-6.025,3.131
109.784793,-7.35,-7.489,4.579
109.795406,-7.14,-8.426,5.054
109.806019,-7.7,-9.52,5.216
109.816632,-8.19,-10.822,5.342
109.827245,-8.61,-11.657,4.839
109.837858,-9.31,-12.055,4.272
109.848471,-9.03,-12.89,3.769
109.859084,-8.82,-12.858,2.779
109.86972,-8.61,-12.696,1.458
109.880356,-8.82,-12.424,0.724
109.890992,-9.24,-12.416,-0.128
109.901628,-8.61,-12.222,-1.231
109.912264,-7.84,-11.873,-1.596
109.9229,-6.79,-11.525,-1.961
109.933536,-6.16,-11.269,-2.2
109.944172,-5.74,-11.022,-2.796
109.954808,-4.62,-10.215,-2.938
109.965444,-3.64,-9.639,-2.979
109.97608,-2.66,-9.144,-2.963
109.986716,-1.82,-8.601,-3.223
109.997391,-0.91,-8.119,-3.137
110.008066,-0.77,-7.879,-2.882
110.018741,-0.28,-7.235,-2.91
110.029416,-0.07,-6.914,-2.712
110.040091,0.49,-6.651,-2.594
110.050766,-0.14,-6.249,-2.452
110.061441,-0.28,-5.973,-2.404
110.072116,-0.49,-5.564,-1.905
110.082791,-0.98,-5.414,-1.95
110.093466,-1.4,-5.312,-1.719
110.104141,-1.61,-5.402,-2.019
110.114816,-2.03,-5.353,-2.294
110.125485,-3.08,-5.625,-2.769
110.136154,-3.85,-5.69,-3.207
110.146823,-5.18,-5.828,-4.439
110.157492,-6.09,-6.351,-5.1
110.168161,-6.93,-6.712,-5.875
110.17883,-7.28,-6.955,-6.913
110.189499,-7.42,-6.992,-7.914
110.200168,-7.42,-6.858,-8.673
110.210837,-7.21,-6.688,-9.638
110.221506,-7.21,-6.279,-10.347
110.232175,-7.14,-6.027,-11.369
110.242844,-7.35,-5.285,-11.949
110.253513,-7.07,-4.693,-12.485
110.264186,-7.14,-4.219,-12.756
110.274859,-7.21,-3.376,-13.105
110.285532,-6.72,-2.893,-13.02
110.296205,-6.09,-1.952,-12.712
110.306878,-6.37,-1.413,-12.546
110.317551,-6.23,-0.805,-12.368
110.328224,-6.09,-0.208,-12.12
110.338897,-6.3,0.286,-12.104
110.34957,-6.23,0.793,-12.157
110.360243,-6.23,1.069,-12.108
110.370916,-6.09,1.308,-11.853
110.381589,-6.93,1.673,-11.504
110.392279,-8.05,1.892,-11.537
110.402969,-8.4,2.002,-10.949
110.413659,-8.33,1.989,-10.88
110.424349,-9.1,2.277,-10.9
110.435039,-10.01,2.314,-11.107
110.445729,-10.71,2.586,-10.633
110.456419,-11.62,2.521,-9.862
110.467109,-12.04,3.04,-9.984
110.477799,-12.04,2.922,-9.72
110.488489,-12.32,2.918,-9.294
110.499179,-12.39,2.744,-9.112
110.509869,-12.6,2.432,-8.954
110.52057,-12.74,2.221,-8.564
110.531271,-12.67,1.978,-8.394
110.541972,-13.72,2.148,-8.151
110.552673,-14.42,1.949,-7.83
110.563374,-15.33,2.144,-7.725
110.574075,-16.1,2.327,-7.551
110.584776,-16.31,2.233,-7.425
110.595477,-17.08,2.541,-7.157
110.606178,-17.64,2.387,-6.687
110.616879,-17.99,2.27,-6.423
110.62758,-18.06,2.578,-6.156
110.638281,-18.62,2.647,-6.144
110.648982,-18.55,2.826,-5.544
110.659683,-18.76,2.939,-5.381
110.670394,-18.83,2.89,-5.106
110.681105,-19.46,2.955,-4.668
110.691816,-19.46,3.255,-4.757
110.702527,-18.76,3.511,-4.996
110.713238,-18.83,3.892,-5.142
110.723949,-18.2,3.661,-5.041
110.73466,-17.85,4.075,-4.968
110.745371,-17.64,4.095,-4.68
110.756082,-16.94,4.29,-4.575
110.766793,-16.8,4.537,-3.962
110.777504,-16.38,4.525,-3.893
110.788233,-16.52,4.732,-3.857
110.798962,-16.17,4.683,-3.581
110.809691,-15.96,4.46,-3.123
110.82042,-15.54,4.298,-3.009
110.831149,-15.47,3.832,-2.381
110.841878,-14.98,3.787,-2.531
110.852607,-14.7,3.686,-2.762
110.863336,-14.28,3.649,-2.555
110.874065,-13.72,3.11,-2.721
110.884794,-13.16,2.83,-2.344
110.895523,-12.67,2.494,-2.048
110.906252,-12.32,1.788,-1.675
110.916992,-11.83,1.395,-1.46
110.927732,-12.25,0.49,-1.975
110.938472,-12.39,0.434,-2.056
110.949212,-12.74,0.028,-2.98
110.959952,-13.02,0.032,-3.406
110.970692,-13.37,0.198,-2.737
110.981432,-13.3,0.324,-2.644
110.992172,-13.58,0.632,-2.376
111.002912,-13.37,0.754,-1.857
111.013652,-13.51,1.484,-2.368
111.024392,-13.51,1.816,-2.239
111.035132,-13.93,2.254,-2.304
111.045872,-13.37,2.623,-2.381
111.056637,-13.23,2.867,-2.551
111.067402,-13.51,3.167,-2.64
111.078167,-13.09,3.292,-2.547
111.088932,-12.95,3.073,-2.515
111.099697,-12.95,3.272,-2.835
111.110462,-12.95,2.794,-2.137
111.121227,-12.88,2.344,-2.003
111.131992,-12.32,2.173,-2.247
111.142757,-11.69,1.691,-2.332
111.153522,-11.76,1.735,-2.182
111.164287,-11.2,1.784,-2.458
111.175052,-11.69,2.124,-3.179
111.185846,-12.46,2.684,-3.934
111.19664,-12.04,3.734,-4.246
111.207434,-11.9,4.253,-4.368
111.218228,-11.9,4.509,-4.607
111.229022,-11.2,4.553,-4.457
111.239816,-11.27,4.622,-4.445
111.25061,-10.71,5.141,-4.567
111.261404,-10.01,4.8,-5.053
111.272198,-9.1,4.817,-5.548
111.282992,-8.75,4.91,-5.674
111.293786,-8.47,4.241,-5.507
111.30458,-8.47,3.71,-5.317
111.315386,-8.4,3.061,-4.862
111.326192,-9.52,2.092,-4.607
111.336998,-10.01,1.585,-4.554
111.347804,-10.71,1.548,-4.347
111.35861,-11.06,1.114,-4.708
111.369416,-11.62,0.758,-4.7
111.380222,-11.27,0.656,-4.931
111.391028,-11.27,0.51,-5.312
111.401834,-11.06,0.34,-5.555
111.41264,-10.92,0.259,-5.499
111.423446,-10.64,-0.203,-5.296
111.434252,-10.36,-0.422,-5.263
111.445058,-10.64,-0.816,-5.048
111.455834,-10.92,-1.464,-4.594
111.46661,-10.5,-2.425,-3.982
111.477386,-10.36,-3.155,-3.471
111.488162,-10.15,-4.222,-2.664
111.498938,-10.36,-5.02,-2.165
111.509714,-10.71,-5.552,-1.974
111.52049,-10.5,-6.768,-1.122
111.531266,-10.64,-7.51,-0.542
111.542042,-11.62,-8.909,0.135
111.552818,-12.25,-10.239,0.825
111.563594,-13.58,-11.402,0.975
111.57437,-14.91,-12.858,1.571
111.585146,-17.5,-14.707,2.382
111.595886,-20.3,-17.809,4.252
111.606626,-24.43,-22.63,6.601
111.617366,-28.56,-28.424,9.631
111.628106,-33.04,-34.312,12.786
111.638846,-38.08,-39.108,13.788
111.649586,-43.61,-41.744,13.821
111.660326,-48.58,-44.189,14.385
111.671066,-53.48,-46.054,15.691
111.681806,-57.61,-47.968,17.273
111.692546,-61.67,-49.882,18.855
111.703286,-64.26,-51.52,19.276
111.714026,-65.38,-52.084,19.248
111.724739,-66.64,-52.161,18.879
111.735452,-66.29,-51.63,18.689
111.746165,-65.38,-50.462,18.113
111.756878,-64.54,-48.743,17.634
111.767591,-63.28,-47.404,17.301
111.778304,-62.65,-46.918,16.96
111.789017,-61.81,-46.318,16.782
111.79973,-61.25,-45.949,16.705
111.810443,-61.25,-45.296,15.825
111.821156,-60.97,-43.909,15.216
111.831869,-59.78,-42.231,14.162
111.842582,-57.33,-40.816,12.99
111.853295,-55.93,-39.182,12.994
111.864,-54.6,-37.908,13.431
111.874705,-52.64,-36.846,13.05
111.88541,-48.44,-35.929,13.496
111.896115,-43.54,-34.49,13.394
111.90682,-39.9,-32.572,12.595
111.917525,-38.08,-30.983,11.241
111.92823,-36.75,-29.105,11.074
111.938935,-35.98,-27.909,11.143
111.94964,-34.44,-27.321,11.033
111.960345,-33.18,-27.613,11.479
111.97105,-31.78,-28.46,12.254
111.981755,-30.17,-29.288,12.108
111.992471,-28.42,-29.389,10.669
112.003187,-28.14,-28.951,9.395
112.013903,-27.02,-28.165,7.757
112.024619,-26.81,-26.304,6.877
112.035335,-26.81,-24.572,6.329
112.046051,-26.88,-23.015,5.964
112.056767,-26.88,-21.101,5.591
112.067483,-26.88,-19.861,5.81
112.078199,-27.37,-18.62,6.028
112.088915,-27.02,-18.129,6.47
112.099631,-27.09,-17.792,7.383
112.110347,-26.18,-17.383,7.881
112.121063,-26.18,-16.957,7.885
112.131758,-25.34,-15.55,7.565
112.142453,-24.78,-13.908,6.717
112.153148,-23.94,-12.026,6.125
112.163843,-23.1,-9.893,5.719
112.174538,-22.26,-8.109,5.678
112.185233,-21.63,-6.28,5.787
112.195928,-20.79,-5.092,6.708
112.206623,-20.44,-4.18,7.579
112.217318,-20.23,-4.123,8.869
112.228013,-20.16,-4.455,9.948
112.238708,-19.6,-4.808,10.738
112.249403,-18.48,-4.301,10.686
112.260101,-18.2,-3.668,10.726
112.270799,-17.5,-2.983,10.065
112.281497,-16.8,-2.484,9.655
112.292195,-16.31,-1.795,9.777
112.302893,-15.75,-1.053,10.405
112.313591,-15.26,-0.286,10.896
112.324289,-14.56,0.038,11.877
112.334987,-13.79,0.075,12.879
112.345685,-14,-0.436,13.357
112.356383,-13.23,-0.367,13.369
112.367081,-12.74,-0.006,12.935
112.377779,-11.83,0.099,12.741
112.388454,-12.11,0.642,12.481
112.399129,-11.13,1.011,12.404
112.409804,-11.62,1.032,12.692
112.420479,-10.99,0.74,13.138
112.431154,-10.36,0.221,13.26
112.441829,-10.36,-0.237,14.245
112.452504,-10.57,-0.947,15.044
112.463179,-10.64,-1.677,15.555
112.473854,-10.78,-2.476,14.846
112.484529,-12.11,-2.901,14.842
112.495204,-13.86,-3.181,15.219
112.505879,-15.05,-3.935,14.659
112.516554,-14.56,-4.211,14.611
112.527239,-14.28,-4.373,14.724
112.537924,-15.12,-4.685,14.882
112.548609,-15.89,-4.953,13.982
112.559294,-15.89,-4.369,13.09
112.569979,-14.91,-4.67,13.179
112.580664,-13.16,-5.359,13.058
112.591349,-12.74,-5.732,12.352
112.602034,-12.53,-5.254,10.446
112.612719,-12.81,-3.989,8.111
112.623404,-14.49,-2.469,5.535
112.634089,-15.54,-0.636,2.802
112.644774,-16.94,0.864,1.147
112.655429,-18.41,2.932,0.304
112.666084,-20.16,4.485,0.364
112.676739,-22.61,5.653,0.997
112.687394,-23.31,6.744,1.26
112.698049,-21.77,8.143,1.791
112.708704,-19.46,9.623,2.265
112.719359,-17.36,10.835,1.839
112.730014,-15.12,11.468,1.88
112.740669,-13.58,11.285,2.914
112.751324,-12.46,10.499,4.552
112.761979,-11.76,9.339,5.485
112.772634,-10.78,8.541,5.984
112.783289,-9.66,7.92,5.875
112.793948,-8.12,7.961,5.242
112.804607,-6.79,8.638,4.224
112.815266,-6.37,9.193,2.687
112.825925,-6.16,9.1,1.605
112.836584,-7.14,9.112,0.327
112.847243,-8.75,9.119,-1.733
112.857902,-10.36,8.397,-3.282
112.868561,-12.25,7.456,-4.798
112.87922,-13.79,6.576,-6.659
112.889879,-15.26,5.919,-7.77
112.900538,-16.17,5.124,-8.905
112.911197,-16.66,4.95,-9.931
112.92186,-16.87,4.187,-10.848
112.932523,-16.1,4.207,-11.768
112.943186,-15.68,4.017,-12.299
112.953849,-15.68,3.112,-12.814
112.964512,-16.52,1.718,-12.563
112.975175,-17.29,0.562,-10.847
112.985838,-17.36,-1.133,-10.506
112.996501,-16.8,-2.686,-9.359
113.007164,-17.43,-3.89,-8.576
113.017827,-17.5,-5.098,-7.367
113.02849,-17.92,-5.942,-7.018
113.039153,-18.2,-6.525,-6.126
113.049816,-17.5,-6.708,-5.092
113.060504,-15.61,-6.075,-5.052
113.071192,-14.98,-5.743,-4.922
113.08188,-13.3,-5.215,-4.687
113.092568,-10.64,-5.061,-5.157
113.103256,-10.57,-4.794,-4.257
113.113944,-6.44,-4.364,-4.679
113.124632,-0.84,-4.392,-6.532
113.13532,-0.07,-3.614,-6.11
113.146008,0.49,-1.834,-6.934
113.156696,-0.49,-0.569,-8.061
113.167384,-1.26,-0.066,-8.897
113.178072,-0.63,0.319,-9.468
113.188784,1.33,0.181,-9.493
113.199496,3.36,0.437,-9.732
113.210208,4.13,0.108,-10.288
113.22092,4.41,-0.216,-10.06
113.231632,1.96,-0.508,-9.614
113.242344,0.28,-1.412,-8.921
113.253056,-1.68,-2.471,-7.757
113.263768,-4.34,-3.006,-5.932
113.27448,-6.02,-3.594,-5.822
113.285192,-8.26,-4.096,-6.195
113.295904,-9.17,-4.713,-6.731
113.306616,-9.03,-4.563,-7.984
113.317326,-8.68,-4.636,-8.778
113.328036,-7.14,-4.632,-9.204
113.338746,-6.79,-4.243,-8.993
113.349456,-5.95,-4.449,-7.821
113.360166,-4.2,-5.499,-6.301
113.370876,-3.29,-6.261,-3.592
113.381586,-3.43,-7.392,0.402
113.392296,-3.43,-8.62,3.74
113.403006,-2.38,-9.358,6.311
113.413716,-0.56,-9.755,8.16
113.424426,1.26,-9.905,9.413
113.435136,2.87,-10.063,10.309
113.445846,3.64,-9.722,10.796
113.456576,3.78,-9.434,10.775
113.467306,2.73,-9.479,10.625
113.478036,1.19,-9.053,10.629
113.488766,-1.19,-9.475,10.2
113.499496,-4.34,-10.023,9.677
113.510226,-7.7,-9.82,8.93
113.520956,-10.85,-10.043,8.18
113.531686,-14.42,-9.954,7.272
113.542416,-16.94,-10.112,6.96
113.553146,-19.39,-10.128,6.246
113.563876,-20.93,-9.824,5.731
113.574606,-22.12,-9.593,5.63
113.585309,-22.96,-9.099,5.646
113.596012,-23.94,-8.932,6.315
113.606715,-24.22,-9.034,7.292
113.617418,-22.82,-9.273,8.245
113.628121,-21.28,-9.394,8.934
113.638824,-19.39,-9.512,9.198
113.649527,-17.22,-8.883,8.456
113.66023,-16.73,-7.793,7.511
113.670933,-15.05,-6.284,6.213
113.681636,-12.53,-4.894,5.179
113.692339,-8.54,-3.572,4.133
113.703042,-4.62,-2.222,3.731
113.713745,-1.75,-1.313,3.82
113.724469,-0.77,-0.908,3.536
113.735193,-0.14,-1.5,4.071
113.745917,-1.26,-1.994,5.264
113.756641,-2.24,-3.085,6.209
113.767365,-3.29,-4.253,6.785
113.778089,-3.85,-4.743,7.551
113.788813,-5.11,-5.587,7.9
113.799537,-6.72,-5.952,8.76
113.810261,-8.05,-6.661,9.559
113.820985,-9.03,-7.452,10.414
113.831709,-9.24,-8.429,11.521
113.842433,-8.47,-9.276,12.296
113.853136,-7.28,-10.448,13.298
113.863839,-4.55,-11.733,14.137
113.874542,-1.4,-12.706,13.61
113.885245,1.47,-13.809,13.416
113.895948,4.06,-15.464,13.124
113.906651,5.95,-16.859,12.167
113.917354,6.23,-18.429,10.185
113.928057,7.84,-19.836,8.088
113.93876,10.71,-21.32,5.623
113.949463,14.77,-22.42,2.586
113.960166,17.85,-23.62,-0.682
113.970869,19.81,-25.19,-2.665
113.981572,20.79,-27.051,-4.201
113.992284,22.4,-29.112,-5.417
114.002996,23.24,-30.652,-5.547
114.013708,24.15,-32.181,-5.745
114.02442,23.38,-32.83,-6.5
114.035132,21.7,-33.086,-7.469
114.045844,19.39,-33.09,-8.251
114.056556,16.17,-32.036,-8.99
114.067268,13.37,-30.941,-10.36
114.07798,10.64,-29.145,-11.678
114.088692,8.26,-28.447,-12.408
114.099404,5.6,-28.143,-12.923
114.110116,3.71,-27.495,-13.378
114.120813,2.31,-27.053,-13.868
114.13151,0.91,-26.558,-13.852
114.142207,0.49,-26.08,-14.55
114.152904,0,-25.638,-15.04
114.163601,-0.56,-25.451,-15.292
114.174298,-1.54,-25.727,-15.341
114.184995,-2.52,-25.913,-15.089
114.195692,-3.71,-26.704,-14.233
114.206389,-4.55,-27.868,-12.875
114.217086,-4.41,-29.06,-12.161
114.227783,-5.46,-30.122,-10.571
114.23848,-4.97,-30.787,-9.622
114.249177,-5.53,-31.703,-8.86
114.259875,-6.58,-31.89,-8.608
114.270573,-6.51,-31.74,-8.653
114.281271,-5.95,-31.444,-8.316
114.291969,-5.67,-30.843,-8.495
114.302667,-4.76,-29.98,-8.556
114.313365,-4.41,-28.581,-9.233
114.324063,-4.27,-27.133,-10.186
114.334761,-2.17,-25.276,-11.849
114.345459,-0.42,-23.48,-13.167
114.356157,0.35,-21.664,-14.198
114.366855,0.42,-20.261,-14.092
114.377553,-1.61,-20.338,-13.253
114.388228,-1.26,-20.265,-12.458
114.398903,-0.42,-20.293,-11.895
114.409578,-0.07,-20.212,-10.743
114.420253,-0.42,-19.729,-9.449
114.430928,-2.17,-18.902,-9.304
114.441603,-4.55,-17.892,-8.983
114.452278,-5.95,-17.089,-8.7
114.462953,-5.46,-15.735,-8.319
114.473628,-4.27,-14.315,-8.708
114.484303,-2.94,-12.823,-9.511
114.494978,-2.1,-10.459,-11.227
114.505653,-1.61,-7.321,-13.303
114.516328,-2.73,-4.694,-14.901
114.52701,-4.97,-3.128,-14.91
114.537692,-7.77,-1.835,-14.184
114.548374,-9.38,-0.999,-12.473
114.559056,-11.9,-0.703,-9.72
114.569738,-13.72,-0.362,-8.025
114.58042,-13.37,0.007,-8.102
114.591102,-11.97,0.806,-8.601
114.601784,-10.85,1.386,-7.859
114.612466,-9.52,2.201,-7.644
114.623148,-7.49,2.537,-7.94
114.63383,-4.34,2.416,-7.251
114.644512,-0.77,1.771,-6.014
114.655165,1.19,1.342,-4.384
114.665818,2.45,0.142,-2.818
114.676471,3.64,-0.584,-1.525
114.687124,4.76,-1.537,0.653
114.697777,4.97,-2.453,2.624
114.70843,4.34,-4.164,4.668
114.719083,3.57,-5.55,6.485
114.729736,2.17,-6.645,7.855
114.740389,0.98,-7.411,8.573
114.751042,-0.77,-7.938,9.547
114.761695,-2.31,-8.834,10.597
114.772348,-4.97,-9.446,12.053
114.783001,-8.61,-9.957,13.74
114.79366,-11.34,-10.371,14.875
114.804319,-13.86,-10.585,15.69
114.814978,-14.28,-10.026,16.144
114.825637,-13.86,-9.032,15.751
114.836296,-12.6,-7.816,14.899
114.846955,-10.57,-7.062,14.25
114.857614,-9.73,-6.194,13.764
114.868273,-8.47,-5.164,13.163
114.878932,-7.84,-4.353,12.595
114.889591,-7.07,-3.636,12.153
114.90025,-6.23,-3.092,11.894
114.910909,-5.11,-2.707,11.322
114.92157,-4.62,-2.395,11.164
114.932231,-4.62,-1.45,11.046
114.942892,-5.11,-1.024,11.05
114.953553,-4.27,-0.205,10.839
114.964214,-2.94,0.699,10.145
114.974875,-0.98,1.996,9.237
114.985536,0.35,3.249,8.178
114.996197,-0.07,3.221,7.534
115.006858,-1.82,3.164,7.453
115.017519,-4.76,2.077,7.972
115.02818,-8.4,1.68,8.613
115.038841,-12.88,1.98,8.523
115.049502,-16.24,1.887,8.649
115.060184,-17.64,2.58,7.136
115.070866,-16.94,3.731,5.847
115.081548,-16.24,4.846,4.764
115.09223,-15.61,5.868,3.807
115.102912,-15.75,6.565,3.077
115.113594,-16.24,6.419,2.696
115.124276,-16.59,6.14,3.073
115.134958,-16.03,5.025,4.156
115.14564,-15.05,3.865,3.88
115.156322,-13.93,2.924,3.572
115.167004,-13.51,1.866,4.736
115.177686,-12.81,0.755,5.393
115.188393,-12.6,-0.458,4.611
115.1991,-10.71,-1.139,3.637
115.209807,-7.14,-1.281,1.622
115.220514,-4.41,-1.294,-0.726
115.231221,-1.82,-0.28,-3.248
115.241928,-0.28,0.466,-5.462
115.252635,-0.28,0.356,-6.05
115.263342,-0.28,-0.203,-5.296
115.274049,0.28,-1.773,-3.653
115.284756,-0.07,-3.483,-1.609
115.295463,-0.35,-4.988,0.471
115.30617,-0.84,-6.078,1.416
115.31689,-2.17,-6.938,1.051
115.32761,-3.29,-6.756,0.017
115.33833,-5.25,-6.107,-1.645
115.34905,-6.93,-5.799,-2.586
115.35977,-8.75,-5.045,-4.444
115.37049,-9.52,-4.303,-6.232
115.38121,-10.08,-3.671,-7.4
115.39193,-10.5,-3.164,-8.661
115.40265,-10.71,-2.475,-9.748
115.41337,-11.27,-2.256,-10.989
115.42409,-11.97,-1.753,-11.824
115.43481,-12.67,-1.21,-12.084
115.44553,-14.07,-0.703,-12.136
115.456272,-15.96,-0.261,-11.419
115.467014,-19.25,-0.204,-10.129
115.477756,-20.09,-0.029,-7.895
115.488498,-21,-0.265,-7.368
115.49924,-21.42,0.287,-6.062
115.509982,-21.28,0.527,-3.39
115.520724,-21.49,0.912,-1.545
115.531466,-20.37,0.324,-1.436
115.542208,-18.83,-0.256,-0.969
115.55295,-16.17,-0.908,-0.089
115.563692,-14,-1.666,0.986
115.574434,-11.76,-3.049,1.168
115.585165,-10.08,-4.063,0.065
115.595896,-8.47,-5.462,-0.466
115.606627,-7.28,-6.886,-2.067
115.617358,-7.14,-8.638,-3.016
115.628089,-7.49,-10.012,-3.685
115.63882,-9.73,-11.006,-4.5
115.649551,-10.92,-12.02,-5.602
115.660282,-9.8,-13.443,-7.204
115.671013,-9.45,-14.003,-7.658
115.681744,-8.61,-14.599,-7.905
115.692475,-7.35,-14.648,-8.838
115.703206,-7.77,-14.49,-9.734
115.713937,-7.77,-13.598,-10.359
115.724685,-7.07,-12.199,-11.036
115.735433,-6.02,-10.374,-11.709
115.746181,-4.48,-8.193,-12.391
115.756929,-3.92,-6.34,-12.42
115.767677,-3.85,-4.632,-11.621
115.778425,-4.83,-3.501,-10.782
115.789173,-7,-2.795,-8.738
115.799921,-7.77,-2.548,-8.126
115.810669,-10.71,-2.462,-7.4
115.821417,-11.97,-1.789,-6.784
115.832165,-12.81,-1.376,-7.919
115.842913,-12.95,-1.165,-9.517
115.853629,-11.76,-0.569,-10.478
115.864345,-10.29,-0.16,-11.188
115.875061,-8.75,-0.565,-10.904
115.885777,-7.77,-0.82,-9.456
115.896493,-8.12,-1.583,-7.956
115.907209,-8.89,-3.225,-5.9
115.917925,-9.59,-4.834,-3.624
115.928641,-10.01,-6.261,-1.175
115.939357,-10.36,-7.717,0.63
115.950073,-10.57,-8.754,2.081
115.960789,-10.57,-8.9,2.909
115.971505,-10.99,-9.139,3.862
115.982221,-10.5,-8.791,4.705
115.992913,-10.29,-8.231,5.159
116.003605,-10.43,-7.744,6.027
116.014297,-10.64,-7.521,6.777
116.024989,-11.62,-7.298,7.527
116.035681,-12.88,-7.44,7.929
116.046373,-12.81,-7.18,8.472
116.057065,-10.5,-6.714,9.052
116.067757,-5.67,-5.988,8.966
116.078449,-1.19,-4.622,8.07
116.089141,0.98,-3.872,6.639
116.099833,0.91,-3.304,6.241
116.110525,-2.03,-3.259,5.183
116.121197,-5.74,-3.251,4.331
116.131869,-10.92,-3.714,3.326
116.142541,-14.14,-4.038,2.344
116.153213,-15.61,-4.858,1.347
116.163885,-15.47,-5.705,0.913
116.174557,-13.65,-6.269,0.885
116.185229,-10.57,-6.581,1.043
116.195901,-8.4,-6.415,0.504
116.206573,-6.65,-5.661,-0.145
116.217245,-5.39,-5.15,-0.624
116.227917,-5.67,-4.522,-1.366
116.238589,-7.21,-4.489,-1.147
116.249261,-9.24,-3.779,-0.737
116.259914,-11.76,-3.386,-0.952
116.270567,-13.16,-2.928,-0.729
116.28122,-13.23,-2.109,-0.94
116.291873,-12.18,-1.063,-3.244
116.302526,-12.39,0.174,-5.016
116.313179,-13.37,1.025,-3.8
116.323832,-12.74,1.48,-1.943
116.334485,-12.32,0.774,-1.569
116.345138,-13.51,0.243,-0.17
116.355791,-15.26,-0.896,1.05
116.366444,-16.52,-2.388,1.853
116.377097,-16.17,-4.347,2.077
116.387745,-17.01,-6.378,1.505
116.398393,-19.11,-8.09,1.132
116.409041,-19.25,-9.683,0.496
116.419689,-20.23,-10.973,-0.655
116.430337,-20.23,-12.271,-2.164
116.440985,-17.71,-12.843,-3.757
116.451633,-15.47,-13.025,-5.14
116.462281,-13.79,-13.922,-5.298
116.472929,-12.95,-14.818,-4.248
116.483577,-12.6,-16.395,-2.962
116.494225,-11.83,-18.665,-1.372
116.504873,-9.45,-20.397,-0.824
116.515541,-7.84,-21.942,-0.528
116.526209,-6.09,-23.693,-0.268
116.536877,-6.79,-24.801,-2.454
116.547545,-8.96,-25.255,-4.311
116.558213,-11.83,-24.777,-6.217
116.568881,-16.24,-24.659,-7.689
116.579549,-19.88,-25.235,-8.857
116.590217,-22.33,-26.277,-8.187
116.600885,-22.89,-27.766,-7.81
116.611553,-23.03,-28.739,-7.129
116.622221,-22.82,-29.963,-6.634
116.632889,-21.42,-30.567,-6.03
116.643557,-20.37,-30.255,-6.188
116.654251,-19.32,-30.117,-6.163
116.664945,-18.41,-30.478,-5.73
116.675639,-18.2,-30.802,-5.502
116.686333,-17.92,-31.622,-5.291
116.697027,-17.36,-32.141,-5.17
116.707721,-16.94,-32.546,-4.886
116.718415,-17.22,-33.252,-4.513
116.729109,-16.45,-33.389,-4.537
116.739803,-16.73,-33.077,-4.695
116.750497,-15.75,-32.518,-5.449
116.761191,-15.33,-31.658,-6.293
116.771867,-15.68,-30.344,-6.488
116.782543,-15.33,-28.581,-6.817
116.793219,-14.56,-26.764,-6.638
116.803895,-14.63,-25.069,-6.979
116.814571,-14.98,-22.648,-6.197
116.825247,-15.89,-20.864,-5.029
116.835923,-15.4,-19.375,-4.198
116.846599,-12.88,-16.918,-3.623
116.857275,-10.08,-13.577,-2.82
116.867951,-8.75,-10.357,-1.329
116.878627,-8.89,-8.442,0.715
116.889303,-10.78,-7.445,2.312
116.899979,-14.28,-6.269,3.302
116.910651,-18.76,-5.401,4.023
116.921323,-21,-4.14,3.322
116.931995,-21.7,-2.806,2.206
116.942667,-21.63,-1.314,1.403
116.953339,-23.94,0.219,1.176
116.964011,-26.04,0.986,1.666
116.974683,-27.16,1.148,1.553
116.985355,-28.77,1.071,1.184
116.996027,-28.56,1.545,0.912
117.006699,-27.72,2.757,-0.722
117.017371,-24.85,4.136,-2.896
117.028043,-20.3,5.709,-4.964
117.038697,-16.38,6.803,-6.335
117.049351,-14.21,8.15,-6.311
117.060005,-13.51,8.758,-6.132
117.070659,-12.46,8.324,-5.285
117.081313,-12.32,7.777,-3.391
117.091967,-11.41,6.585,-0.26
117.102621,-9.73,6.427,1.844
117.113275,-8.47,6.841,3.125
117.123929,-6.79,6.744,3.677
117.134583,-4.69,6.606,4.861
117.145237,-3.92,5.621,6.82
117.155891,-4.9,3.935,8.726
117.166545,-5.95,1.956,9.87
117.177207,-8.47,0.516,9.971
117.187869,-10.08,0.18,10.267
117.198531,-11.41,-0.177,10.275
117.209193,-11.2,-0.076,10.506
117.219855,-10.92,0.727,10.79
117.230517,-10.92,1.773,9.695
117.241179,-11.06,3.16,6.67
117.251841,-11.13,4.129,3.998
117.262503,-9.52,4.4,0.847
117.273165,-8.68,4.403,-1.996
117.283827,-9.45,4.379,-3.066
117.294489,-10.78,4.196,-3.241
117.305185,-13.3,3.799,-2.6
117.315881,-17.78,3.284,-0.487
117.326577,-20.65,2.896,2.927
117.337273,-23.94,2.154,5.924
117.347969,-25.06,1.676,9.038
117.358665,-26.18,2.216,11.621
117.369361,-27.65,4.479,14.508
117.380057,-25.76,6.121,16.077
117.390753,-23.45,7.885,16.957
117.401449,-21.35,9.718,17.849
117.412145,-18.2,10.387,18.891
117.422841,-16.31,10.582,18.996
117.433552,-14.84,9.844,19.15
117.444263,-14.84,9.098,20.156
117.454974,-14.84,7.963,20.951
117.465685,-13.86,7.61,20.533
117.476396,-13.09,7.833,20.075
117.487107,-12.6,8.267,19.228
117.497818,-11.69,9.151,18.246
117.508529,-11.69,9.552,17.18
117.51924,-13.65,9.357,18.283
117.529951,-16.45,7.869,19.868
117.540662,-17.15,6.207,19.22
117.551373,-15.19,4.958,17.436
117.562084,-9.94,4.398,15.773
117.572821,-5.32,4.75,12.566
117.583558,-3.01,6.047,8.032
117.594295,-2.52,7.725,3.352
117.605032,-2.17,7.595,1.268
117.615769,-1.26,7.4,-0.046
117.626506,-1.26,6.232,-0.678
117.637243,-0.63,5.584,-1.432
117.64798,0.49,5.016,-3.451
117.658717,2.52,4.999,-6.582
117.669454,3.5,5.311,-10.365
117.680191,3.71,4.921,-14.201
117.690928,3.01,4.235,-17.165
117.701656,1.82,3.679,-20.462
117.712384,0.56,3.695,-23.373
117.723112,-0.28,3.991,-25.454
117.73384,-1.4,4.445,-26.013
117.744568,-2.31,5.065,-25.904
117.755296,-2.87,5.499,-25.543
117.766024,-3.78,5.037,-24.132
117.776752,-3.78,5.098,-22.06
117.78748,-3.99,4.969,-20.519
117.798208,-5.25,4.677,-18.864
117.808936,-6.44,4.442,-17.129
117.819664,-7.91,4.45,-15.564
117.830392,-7.77,5.273,-14.992
117.841142,-7.28,5.979,-14.157
117.851892,-6.3,7.18,-13.305
117.862642,-6.23,7.374,-11.992
117.873392,-7.14,7.188,-10.532
117.884142,-8.47,6.357,-9.044
117.894892,-8.61,5.246,-7.178
117.905642,-8.75,4.541,-5.597
117.916392,-10.15,3.71,-4.108
117.927142,-12.25,2.802,-2.989
117.937892,-12.74,1.642,-2.056
117.948642,-12.39,0.73,-1.719
117.959392,-11.76,-0.098,-1.865
117.970142,-11.9,-0.231,-2.315
117.980864,-13.86,-0.568,-2.019
117.991586,-14.07,-1.634,-1.212
118.002308,-13.02,-3.346,-1.585
118.01303,-13.3,-4.984,0.045
118.023752,-10.92,-6.488,0.917
118.034474,-11.13,-7.506,1.449
118.045196,-10.08,-7.834,2.102
118.055918,-8.61,-8.43,0.646
118.06664,-8.61,-7.672,-0.429
118.077362,-7.91,-7.011,-2.16
118.088084,-9.38,-5.848,-4.727
118.098806,-12.32,-4.352,-5.956
118.109533,-11.62,-2.26,-8.146
118.12026,-13.09,-0.342,-10.154
118.130987,-14.49,1.219,-10.945
118.141714,-15.12,2.772,-12.092
118.152441,-14.28,4.572,-13.836
118.163168,-11.97,5.975,-14.939
118.173895,-8.75,6.823,-14.506
118.184622,-5.53,7.224,-13.155
118.195349,-3.78,7.289,-10.301
118.206076,-2.38,7.411,-7.365
118.216803,-1.68,6.767,-3.711
118.22753,-0.63,6.966,-0.406
118.238238,0.56,6.845,2.7
118.248946,1.89,5.779,5.924
118.259654,2.03,4.989,7.988
118.270362,2.38,5.034,9.346
118.28107,1.75,4.786,9.942
118.291778,1.19,5.123,9.646
118.302486,0.07,5.394,8.912
118.313194,-2.38,5.536,8.511
118.323902,-4.69,5.106,7.724
118.33461,-7.49,5.56,7.164
118.345318,-10.29,5.098,7.367
118.356026,-11.97,4.303,7.44
118.366734,-12.81,4.372,7.452
118.377446,-12.81,4.425,6.751
118.388158,-12.6,4.697,6.017
118.39887,-12.39,5.414,5.575
118.409582,-13.16,6.331,4.812
118.420294,-14.63,7.506,4.593
118.431006,-14.91,8.605,4.005
118.441718,-14.63,9.424,3.794
118.45243,-14.42,10.353,4.171
118.463142,-13.93,11.423,4.147
118.473854,-12.67,12.668,3.94
118.484566,-11.06,14.116,4.195
118.495278,-8.61,14.988,4.491
118.505991,-6.16,15.71,4.831
118.516704,-4.13,15.961,5.018
118.527417,-1.96,15.621,5.74
118.53813,-1.26,15.292,6.393
118.548843,0.28,13.987,6.944
118.559556,5.6,12.656,5.217
118.570269,9.94,12.279,3.729
118.580982,11.9,10.949,4.418
118.591695,14.56,9.562,3.818
118.602408,16.94,7.981,3.113
118.613121,17.29,5.438,4.229
118.623834,17.01,2.215,6.788
118.634547,15.47,-0.457,8.236
118.645268,15.68,-2.586,9.424
118.655989,17.36,-4.743,8.759
118.66671,17.78,-5.785,8.22
118.677431,15.75,-6.053,7.32
118.688152,14.07,-5.692,5.678
118.698873,12.32,-4.849,2.912
118.709594,11.55,-3.889,1.091
118.720315,10.99,-3.183,-0.49
118.731036,9.59,-3.333,-1.654
118.741757,8.12,-3.528,-2.968
118.752478,6.58,-3.472,-4.095
118.763199,4.62,-3.451,-5.016
118.773905,3.36,-3.468,-5.729
118.784611,1.82,-3.598,-6.605
118.795317,0.35,-3.74,-7.412
118.806023,-1.12,-3.825,-8.138
118.816729,-1.82,-3.655,-9.103
118.827435,-2.31,-3.61,-10.161
118.838141,-2.45,-3.217,-11.585
118.848847,-2.94,-2.771,-12.501
118.859553,-3.15,-2.358,-13.637
118.870259,-3.22,-1.766,-14.172
118.880965,-4.34,-1.616,-14.217
118.891671,-6.44,-1.685,-13.02
118.902377,-5.39,-2.528,-12.671
118.913095,-4.06,-3.42,-13.255
118.923813,-2.94,-4.641,-11.978
118.934531,-2.03,-5.881,-10.988
118.945249,-1.47,-7.734,-9.751
118.955967,-1.05,-9.595,-8.871
118.966685,-1.47,-11.262,-6.677
118.977403,-2.03,-12.989,-4.138
118.988121,-1.61,-13.942,-3.169
118.998839,-1.19,-14.144,-2.423
119.009557,0.49,-13.816,-1.867
119.020275,2.24,-12.814,-3.112
119.030993,2.73,-12.085,-4.832
119.041723,0.28,-11.529,-5.16
119.052453,-2.24,-11.379,-3.997
119.063183,-0.21,-11.448,-5.217
119.073913,3.43,-11.59,-6.024
119.084643,4.9,-11.355,-4.135
119.095373,4.55,-10.244,-4.792
119.106103,2.45,-10.114,-6.332
119.116833,1.05,-10.009,-7.736
119.127563,-0.49,-9.616,-9.159
119.138293,-4.62,-9.194,-9.938
119.149023,-4.06,-7.228,-12.221
119.159753,-4.48,-5.408,-16.094
119.170488,-3.92,-3.542,-17.399
119.181223,-2.38,-1.207,-18.551
119.191958,-1.33,0.334,-18.422
119.202693,0.56,1.81,-16.313
119.213428,2.94,2.443,-12.648
119.224163,4.9,2.87,-7.81
119.234898,5.39,3.609,-3.131
119.245633,5.88,3.419,1.171
119.256368,6.02,3.837,5.652
119.267103,5.32,4.008,9.521
119.277838,5.04,4.081,12.732
119.288573,4.69,3.802,15.526
119.299308,3.85,3.692,17.355
119.31005,2.59,3.628,18.125
119.320792,1.19,3.178,18.259
119.331534,0.21,2.732,17.967
119.342276,-1.05,2.521,17.148
119.353018,-3.08,1.616,16.633
119.36376,-4.62,0.967,15.879
119.374502,-6.09,0.748,14.703
119.385244,-8.47,0.638,12.907
119.395986,-10.5,0.711,11.285
119.406728,-10.71,1.421,9.278
119.41747,-11.27,2.041,6.97
119.428212,-12.88,3.046,5.299
119.438932,-14.91,4.339,3.608
119.449652,-17.29,5.629,2.343
119.460372,-20.02,6.723,0.972
119.471092,-21.98,7.859,0.177
119.481812,-23.03,8.503,0.149
119.492532,-22.61,9.176,-0.443
119.503252,-22.89,10.247,-0.468
119.513972,-20.37,10.973,-0.553
119.524692,-17.71,11.82,-1.328
119.535412,-15.89,12.51,0.002
119.546132,-13.44,13.106,1.458
119.556852,-11.69,13.366,2.001
119.567572,-12.46,13.573,3.246
119.578276,-13.79,14.023,4.321
119.58898,-16.38,14.124,4.552
119.599684,-16.17,14.655,4.361
119.610388,-15.05,15.579,1.539
119.621092,-17.71,16.342,0.038
119.631796,-17.22,16.905,-1.142
119.6425,-16.03,16.528,-2.63
119.653204,-17.92,14.553,-0.704
119.663908,-18.97,11.359,3.709
119.674612,-17.15,7.523,5.307
119.685316,-14.63,3.277,7.615
119.69602,-9.8,-0.347,11.24
119.706724,-4.48,-2.711,12.956
119.717418,-2.8,-4.106,13.208
119.728112,-1.89,-5.245,13.22
119.738806,-0.7,-5.538,11.249
119.7495,0.98,-5.368,9.076
119.760194,2.59,-4.431,6.184
119.770888,3.08,-4.253,3.159
119.781582,2.59,-4.051,-0.003
119.792276,1.47,-4.396,-2.481
119.80297,0.84,-4.692,-5.234
119.813664,-0.07,-4.449,-7.821
119.824358,-1.61,-4.579,-9.906
119.835046,-3.15,-4.685,-12.128
119.845734,-4.48,-3.874,-13.904
119.856422,-5.88,-2.601,-15.883
119.86711,-7.21,-1.612,-17.059
119.877798,-8.54,-0.631,-18.592
119.888486,-9.59,0.711,-19.351
119.899174,-9.45,1.81,-19.939
119.909862,-8.54,2.325,-20.843
119.92055,-8.89,2.576,-20.656
119.931238,-9.8,2.499,-18.609
119.941926,-9.87,1.814,-17.948
119.952614,-11.41,-0.181,-16.309
119.96331,-11.55,-1.944,-13.564
119.974006,-10.43,-4.353,-11.998
119.984702,-11.97,-6.984,-8.766
119.995398,-12.53,-9.818,-5.996
120.006094,-13.58,-12.255,-3.867
120.01679,-13.51,-14.436,-1.977
120.027486,-13.3,-15.948,-0.253
120.038182,-12.74,-16.885,1.43
120.048878,-9.59,-17.635,0.444
120.059574,-8.19,-17.712,0.075
120.07027,-6.58,-17.818,0.27
120.080966,-7.56,-17.834,0.765
120.091635,-6.58,-17.789,0.915
120.102304,-4.27,-18.045,-0.054
120.112973,-1.4,-18.389,1.093
120.123642,1.12,-17.266,1.576
120.134311,0.91,-16.11,-0.14
120.14498,1.4,-14.302,-2.735
120.155649,0.77,-12.523,-5.975
120.166318,0.91,-10.204,-9.049
120.176987,-2.8,-8.772,-10.716
120.187656,-3.22,-7.159,-12.209
120.198325,-4.62,-6.141,-15.157
120.208994,-5.18,-5.018,-15.883
120.219663,-5.18,-4.394,-16.199
120.230331,-5.18,-3.786,-16.021
120.240999,-3.57,-4.252,-15.392
120.251667,-1.19,-4.876,-12.659
120.262335,0.14,-6.327,-8.863
120.273003,0.84,-7.543,-4.386
120.283671,0.7,-9.087,-0.465
120.294339,0.28,-10.737,3.651
120.305007,-0.91,-11.937,7.633
120.315675,-0.98,-12.545,11.08
120.326343,-2.1,-13.075,13.687
120.337011,-3.01,-13.14,15.666
120.347679,-3.57,-13.566,16.871
120.358357,-5.32,-13.63,17.641
120.369035,-7.49,-13.237,17.426
120.379713,-9.8,-12.937,17.337
120.390391,-11.55,-12.884,16.635
120.401069,-13.37,-12.949,16.197
120.411747,-14.56,-13.039,15.897
120.422425,-15.05,-13.002,15.691
120.433103,-15.4,-13.217,15.297
120.443781,-15.54,-13.083,14.539
120.454459,-13.93,-12.634,13.197
120.465137,-12.81,-12.208,11.992
120.475815,-11.27,-11.519,10.905
120.486506,-10.85,-10.598,9.717
120.497197,-12.32,-9.496,8.703
120.507888,-13.23,-8.129,6.599
120.518579,-15.54,-6.256,4.441
120.52927,-17.5,-3.864,2.162
120.539961,-18.76,-1.164,-1.058
120.550652,-18.55,1.447,-3.37
120.561343,-18.2,4.379,-5.483
120.572034,-15.75,7.039,-6.862
120.582725,-14.21,8.839,-7.398
120.593416,-12.74,9.419,-6.656
120.604107,-8.96,9.597,-6.055
120.614778,-2.45,9.63,-5.836
120.625449,3.99,9.824,-5.731
120.63612,4.62,9.671,-4.052
120.646791,4.34,9.002,-2.678
120.657462,2.66,7.672,-1.988
120.668133,0.42,5.409,-0.041
120.678804,-2.1,2.328,4.533
120.689475,-3.43,-0.644,8.487
120.700146,-4.83,-3.469,11.614
120.710817,-2.94,-6.222,14.327
120.721488,-1.68,-7.714,16.339
120.732159,-1.61,-8.326,17.794
120.74283,-2.73,-8.72,18.009
120.75349,-4.13,-8.343,17.081
120.76415,-4.9,-7.763,15.406
120.77481,-5.53,-6.932,13.918
120.78547,-7.07,-6.223,11.91
120.79613,-8.12,-5.963,10.037
120.80679,-9.17,-6.11,8.447
120.81745,-9.87,-5.887,6.781
120.82811,-9.73,-5.859,5.009
120.83877,-9.03,-5.389,2.746
120.84943,-9.31,-5.494,0.524
120.86009,-9.38,-5.154,-1.406
120.87075,-10.36,-5.236,-3.766
120.881417,-11.13,-5.102,-5.733
120.892084,-11.27,-5.682,-7.683
120.902751,-11.97,-6.327,-8.863
120.913418,-11.83,-6.85,-10.733
120.924085,-12.53,-7.349,-12.74
120.934752,-12.04,-7.374,-15.019
120.945419,-12.04,-7.451,-16.596
120.956086,-12.39,-7.674,-17.346
120.966753,-14.14,-8.218,-17.087
120.97742,-13.86,-8.96,-15.298
120.988087,-12.46,-9.426,-14.67
120.998754,-10.64,-9.758,-12.383
121.009411,-10.57,-10.406,-9.512
121.020068,-10.85,-11.404,-6.276
121.030725,-11.55,-12.165,-3.567
121.041382,-11.76,-12.895,-0.639
121.052039,-10.85,-13.929,2.804
121.062696,-10.64,-14.78,5.213
121.073353,-12.88,-15.753,7.102
121.08401,-13.58,-16.418,6.843
121.094667,-14.14,-16.633,4.033
121.105324,-14.49,-16.325,1.884
121.115981,-14.42,-15.997,0.023
121.126638,-18.41,-16.459,0.225
121.137295,-21.28,-18.097,1.856
121.147952,-18.9,-19.962,1.953
121.158609,-15.82,-21.45,3.539
121.169266,-13.3,-22.48,6.556
121.179926,-10.99,-21.685,6.483
121.190586,-10.57,-20.051,5.278
121.201246,-9.8,-17.627,2.01
121.211906,-8.33,-13.958,-2.674
121.222566,-9.94,-10.297,-6.507
121.233226,-7.28,-7.041,-10.055
121.243886,-4.69,-4.191,-15.737
121.254546,-3.36,-1.199,-18.195
121.265206,-1.05,0.678,-20.778
121.275866,-0.35,1.737,-20.733
121.28651,1.4,1.38,-19.517
121.297154,3.01,0.054,-16.836
121.307798,4.13,-1.024,-12.335
121.318442,3.57,-2.803,-7.887
121.329086,1.47,-4.129,-3.998
121.33973,-0.28,-4.684,-0.044
121.350374,-1.12,-4.565,3.318
121.361018,-1.75,-4.825,6.399
121.371662,-2.31,-4.638,8.565
121.382306,-2.1,-4.366,10.248
121.39295,-2.1,-3.311,10.718
121.403594,-3.01,-2.853,10.941
121.414238,-4.2,-2.281,11.326
121.424912,-5.25,-1.073,11.326
121.435586,-5.95,-0.181,10.701
121.44626,-8.33,0.431,10.454
121.456934,-9.87,0.237,10.348
121.467608,-10.78,0.541,9.833
121.478282,-12.04,0.743,9.087
121.488956,-13.16,1.339,8.126
121.49963,-12.53,1.663,6.691
121.510304,-12.6,1.785,6.001
121.520978,-13.72,1.562,5.251
121.531652,-14.63,1.481,4.099
121.542326,-15.26,2.113,2.931
121.552993,-16.59,2.518,1.439
121.56366,-16.17,3.329,-0.337
121.574327,-16.87,4.821,-2.349
121.584994,-17.64,6.589,-4.311
121.595661,-18.9,8.231,-5.159
121.606328,-18.76,10.1,-5.682
121.616995,-15.26,11.645,-7.187
121.627662,-12.39,13.121,-7.495
121.638329,-10.64,14.151,-6.887
121.648996,-8.47,15.084,-6.936
121.659663,-8.61,15.205,-6.417
