Time,GyroscopeX,GyroscopeY,GyroscopeZ
82.001225,45.08,41.133,-6.323
82.011853,42.7,38.591,-5.208
82.022481,40.11,36.247,-4.413
82.033109,37.73,34.345,-4.108
82.043737,35.7,32.504,-4.149
82.054365,33.53,30.598,-4.627
82.064993,31.71,29.216,-4.444
82.075597,29.54,27.723,-4.85
82.086201,27.3,26.312,-5.312
82.096805,25.2,25.27,-5.851
82.107409,23.45,23.924,-5.875
82.118013,21.28,23.161,-6.791
82.128617,20.02,22.237,-7.594
82.139221,18.69,20.975,-8.101
82.149825,17.22,20.351,-8.993
82.160429,16.1,19.714,-9.816
82.171033,14.84,18.846,-10.537
82.181637,14,18.003,-11.397
82.192241,12.88,17.2,-11.681
82.202857,12.39,16.94,-12.224
82.213473,11.34,17.058,-12.488
82.224089,10.78,16.502,-12.159
82.234705,9.31,15.748,-11.51
82.245321,8.12,14.799,-10.967
82.255937,6.58,13.688,-10.31
82.266553,5.18,11.985,-9.117
82.277169,3.36,10.688,-8.209
82.287785,1.89,9.524,-6.85
82.298401,1.33,8.348,-5.423
82.309017,0.21,6.99,-4.17
82.319633,-1.05,5.806,-3.099
82.330244,-1.89,5.004,-2.174
82.340855,-2.94,4.095,-1.055
82.351466,-3.92,2.924,-0.053
82.362077,-4.62,2.417,1.208
82.372688,-5.32,1.902,2.112
82.383299,-5.04,1.343,2.867
82.39391,-5.04,0.657,3.528
82.404521,-4.69,0.086,4.351
82.415132,-4.9,-0.38,4.98
82.425743,-4.97,-1.22,4.903
82.436354,-5.53,-1.759,4.736
82.446965,-6.44,-2.388,5.479
82.457576,-7.35,-3.357,5.734
82.468196,-8.61,-4.014,5.832
82.478816,-9.59,-4.889,5.962
82.489436,-10.71,-5.733,6.31
82.500056,-11.06,-6.714,6.635
82.510676,-12.32,-7.622,6.546
82.521296,-12.6,-8.466,6.895
82.531916,-13.23,-8.904,6.96
82.542536,-13.58,-9.909,7.422
82.553156,-13.37,-11.077,7.998
82.563776,-12.74,-11.665,8.108
82.574396,-12.67,-12.391,8.193
82.585016,-13.3,-12.63,7.937
82.595617,-14.63,-12.882,7.751
82.606218,-14.49,-13.044,7.864
82.616819,-15.12,-13.032,7.796
82.62742,-15.89,-13.092,8.14
82.638021,-16.38,-13.121,8.704
82.648622,-16.1,-13.157,8.911
82.659223,-16.31,-12.804,9.328
82.669824,-16.17,-13.084,9.705
82.680425,-15.33,-12.934,9.661
82.691026,-15.12,-13.242,10.602
82.701627,-14.77,-13.485,10.772
82.712228,-14.49,-13.599,10.61
82.722829,-14.14,-13.729,10.942
82.733417,-13.93,-13.692,10.735
82.744005,-14.91,-13.404,10.715
82.754593,-16.03,-13.502,10.058
82.765181,-15.82,-13.141,9.624
82.775769,-15.96,-12.881,8.959
82.786357,-16.38,-12.581,8.87
82.796945,-16.8,-12.602,8.582
82.807533,-16.8,-12.2,7.516
82.818121,-16.73,-11.272,6.684
82.828709,-16.38,-10.307,5.646
82.839297,-16.31,-9.979,4.993
82.849885,-15.47,-9.496,5.078
82.860473,-15.61,-9.135,4.644
82.87107,-16.66,-8.722,4.717
82.881667,-17.15,-8.19,4.527
82.892264,-17.71,-7.53,4.003
82.902861,-18.06,-6.455,3.553
82.913458,-17.43,-5.758,2.823
82.924055,-17.57,-4.995,2.531
82.934652,-17.57,-5.052,2.45
82.945249,-17.57,-4.574,2.961
82.955846,-17.85,-4.659,3.443
82.966443,-17.57,-4.736,3.074
82.97704,-17.36,-4.574,2.961
82.987637,-16.17,-4.286,2.94
82.998243,-15.47,-4.553,3.249
83.008849,-14.07,-4.817,3.131
83.019455,-13.23,-5.141,3.358
83.030061,-12.67,-5.66,3.48
83.040667,-12.11,-6.293,3.44
83.051273,-11.55,-6.382,3.139
83.061879,-11.62,-6.009,2.637
83.072485,-11.41,-6.301,1.874
83.083091,-11.48,-6.403,1.643
83.093697,-11.83,-6.411,1.286
83.104303,-11.97,-6.245,0.747
83.114909,-11.97,-6.63,0.11
83.125515,-11.2,-6.277,-0.68
83.136164,-11.2,-5.6,-1.698
83.146813,-11.41,-4.976,-3.223
83.157462,-10.64,-4.494,-4.346
83.168111,-10.08,-3.423,-5.579
83.17876,-9.52,-2.458,-6.617
83.189409,-8.89,-1.737,-7.485
83.200058,-8.12,-1.388,-7.85
83.210707,-7.35,-1.222,-7.181
83.221356,-6.79,-0.824,-6.614
83.232005,-6.09,-1.002,-6.005
83.242654,-5.6,-1.035,-5.016
83.253303,-4.76,-1.116,-3.751
83.263986,-3.64,-1.318,-3.005
83.274669,-3.43,-1.505,-2.753
83.285352,-3.08,-1.383,-2.234
83.296035,-3.01,-1.355,-1.589
83.306718,-3.36,-1.732,-0.661
83.317401,-3.29,-2.003,0.073
83.328084,-3.71,-2.202,0.394
83.338767,-3.92,-2.494,0.84
83.34945,-4.27,-2.96,1.468
83.360133,-4.69,-3.893,1.517
83.370816,-5.11,-4.18,1.537
83.381499,-5.25,-4.375,1.432
83.392238,-5.39,-4.408,1.213
83.402977,-5.11,-4.335,0.799
83.413716,-5.18,-4.278,-0.328
83.424455,-5.25,-3.962,-0.912
83.435194,-4.62,-3.946,-1.407
83.445933,-4.2,-3.852,-1.532
83.456672,-3.78,-3.828,-1.67
83.467411,-3.22,-3.508,-2.68
83.47815,-2.66,-3.107,-3.746
83.488889,-1.82,-2.653,-4.306
83.499628,-1.19,-1.98,-4.898
83.510367,-0.56,-1.481,-5.308
83.521134,-0.42,-1.031,-5.442
83.531901,-0.49,-1.144,-5.604
83.542668,-0.77,-0.909,-6.131
83.553435,-1.47,-1.015,-5.936
83.564202,-2.24,-1.315,-5.847
83.574969,-3.08,-1.039,-5.798
83.585736,-3.57,-0.731,-5.531
83.596503,-4.34,-0.345,-4.894
83.60727,-4.76,-0.155,-4.363
83.618037,-4.55,-0.369,-3.548
83.628804,-4.83,-0.357,-2.409
83.639571,-5.67,-0.154,-1.946
83.650338,-6.44,0.397,-0.641
83.66114,-6.72,0.864,-0.061
83.671942,-7.49,1.541,0.13
83.682744,-7.91,1.042,1.748
83.693546,-7.84,0.438,2.352
83.704348,-7.77,0.122,2.936
83.71515,-7.84,-0.336,2.713
83.725952,-8.19,-0.551,2.32
83.736754,-9.45,-0.766,1.926
83.747556,-9.17,-1.018,1.74
83.758358,-9.17,-1.261,0.702
83.76916,-9.31,-1.521,0.158
83.779962,-9.17,-1.873,-0.259
83.790819,-8.68,-2.376,-0.632
83.801676,-8.47,-2.798,-1.062
83.812533,-7.98,-2.839,-1.638
83.82339,-7.35,-2.454,-2.21
83.834247,-6.86,-2.616,-2.096
83.845104,-6.79,-2.158,-1.873
83.855961,-6.51,-2.352,-1.979
83.866818,-6.79,-2.271,-2.035
83.877675,-7,-1.663,-1.857
83.888532,-6.93,-1.282,-2.003
83.899389,-6.86,-0.872,-1.504
83.910246,-6.65,-0.84,-1.285
83.921133,-6.51,-0.823,-0.572
83.93202,-6.09,-0.904,-0.515
83.942907,-5.67,-0.941,-0.308
83.953794,-5.25,-0.965,-0.17
83.964681,-4.69,-0.827,-0.146
83.975568,-4.41,-0.799,-0.71
83.986455,-4.62,-0.75,-0.985
83.997342,-4.41,-0.381,-1.062
84.008229,-4.41,-0.669,-1.042
84.019116,-4.48,-0.9,-0.941
84.030003,-4.83,-0.831,-0.928
84.04089,-4.69,-1.075,-0.758
84.051777,-5.04,-1.168,-0.632
84.062697,-5.53,-1.537,-0.555
84.073617,-6.02,-1.48,-0.474
84.084537,-6.16,-1.525,-0.624
84.095457,-6.93,-1.395,-0.957
84.106377,-7.14,-1.067,-1.61
84.117297,-7.07,-0.937,-1.942
84.128217,-7.07,-0.54,-2.583
84.139137,-6.86,-0.321,-2.615
84.150057,-6.09,-0.288,-2.396
84.160977,-5.46,-0.406,-2.133
84.171897,-4.69,-0.487,-2.076
84.182817,-4.41,-0.487,-2.076
84.193765,-4.48,-0.3,-2.328
84.204713,-4.55,-0.138,-2.441
84.215661,-4.34,0.056,-2.336
84.226609,-5.04,0.324,-2.644
84.237557,-4.83,0.397,-3.058
84.248505,-4.48,0.936,-2.891
84.259453,-4.34,1.107,-2.648
84.270401,-4.27,0.778,-1.995
84.281349,-3.5,-0.008,-1.565
84.292297,-3.5,-0.13,-2.084
84.303245,-3.57,-0.053,-1.715
84.314193,-3.22,-0.252,-1.395
84.325158,-3.36,-0.345,-1.269
84.336123,-4.06,-0.45,-1.075
84.347088,-4.06,-0.937,-0.734
84.358053,-4.06,-1.018,-0.677
84.369018,-4.34,-1.294,-0.726
84.379983,-4.13,-1.861,-0.328
84.390948,-4.06,-2.344,-0.413
84.401913,-3.85,-2.368,-0.275
84.412878,-4.06,-3.001,-0.316
84.423843,-4.62,-3.601,-0.137
84.434808,-4.62,-3.658,-0.218
84.445773,-4.76,-3.942,-0.624
84.456729,-4.2,-3.905,-0.831
84.467685,-5.18,-3.419,-1.171
84.478641,-5.46,-3.719,-1.082
84.489597,-5.53,-3.998,-0.705
84.500553,-5.39,-4.29,-0.259
84.511509,-4.97,-4.152,-0.235
84.522465,-5.04,-3.982,0.009
84.533421,-4.55,-4.27,0.029
84.544377,-4.2,-4.067,0.491
84.555333,-4.41,-4.266,0.812
84.566289,-5.11,-4.31,0.662
84.577245,-5.95,-4.205,0.467
84.588201,-5.81,-3.994,0.078
84.599153,-5.11,-4.051,-0.003
84.610105,-4.83,-4.124,0.41
84.621057,-4.34,-4.16,0.617
84.632009,-3.99,-4.692,0.808
84.642961,-3.36,-4.752,1.152
84.653913,-3.15,-4.679,1.947
84.664865,-3.29,-5.304,2.263
84.675817,-3.57,-5.961,2.361
84.686769,-3.78,-6.69,2.872
84.697721,-4.55,-7.222,3.063
84.708673,-5.11,-7.234,3.131
84.719581,-6.02,-7.234,3.131
84.730489,-6.65,-7.647,3.059
84.741397,-7.77,-7.895,2.446
84.752305,-8.33,-8.17,2.398
84.763213,-8.4,-8.649,1.887
84.774121,-8.4,-8.576,1.473
84.785029,-8.33,-9.253,1.283
84.795937,-7.28,-10.871,1.993
84.806845,-6.02,-12.846,2.711
84.817753,-5.25,-16.39,3.863
84.828661,-4.06,-21.219,5.854
84.839569,-2.87,-27.776,7.968
84.850477,-2.31,-35.374,10.751
84.861331,-1.75,-42.774,13.213
84.872185,-0.7,-50.851,15.485
84.883039,-0.7,-60.624,18.098
84.893893,-0.28,-71.811,21.883
84.904747,0.42,-83.286,25.688
84.915601,0.56,-92.316,27.721
84.926455,0.7,-99.137,27.3
84.937309,0.98,-103.597,26.798
84.948163,0.7,-106.744,26.101
84.959017,0.49,-109.295,25.651
84.969871,0.49,-110.831,26.304
84.980725,0.84,-111.853,27.261
84.991495,0.98,-112.011,28.157
85.002265,0.63,-110.734,28.169
85.013035,0.14,-107.802,27.265
85.023805,0.07,-103.901,26.104
85.034575,0.07,-99.611,25.155
85.045345,0.7,-94.928,23.99
85.056115,0.91,-89.953,23.588
85.066885,0.91,-85.638,23.709
85.077655,0.7,-81.263,23.486
85.088425,0.77,-76.579,23.53
85.099195,0.42,-71.835,23.229
85.109965,0.28,-67.719,22.462
85.120735,0.14,-63.441,21.581
85.131437,-0.63,-59.646,20.616
85.142139,-0.49,-55.766,19.168
85.152841,-1.05,-51.97,18.202
85.163543,-0.84,-48.771,16.989
85.174245,-1.05,-46.208,16.162
85.184947,-1.33,-44.088,15.825
85.195649,-1.47,-42.032,15.05
85.206351,-2.38,-40.52,14.535
85.217053,-3.15,-38.938,14.032
85.227755,-4.34,-37.093,13.646
85.238457,-5.39,-35.625,12.981
85.249159,-6.79,-34.182,12.454
85.259808,-7.49,-32.288,11.792
85.270457,-7.91,-30.8,11.415
85.281106,-8.75,-29.122,10.361
85.291755,-9.1,-27.131,9.148
85.302404,-8.89,-25.622,7.85
85.313053,-8.05,-23.863,6.739
85.323702,-6.86,-22.33,5.303
85.334351,-6.23,-21.029,3.969
85.345,-4.9,-19.898,2.391
85.355649,-3.64,-18.56,0.85
85.366298,-2.94,-16.808,-0.618
85.376947,-2.1,-15.539,-2.171
85.387551,-0.98,-13.301,-3.98
85.398155,-0.84,-11.006,-5.708
85.408759,-0.63,-8.76,-7.16
85.419363,-0.35,-5.95,-8.584
85.429967,-0.07,-2.556,-9.691
85.440571,0.21,0.623,-11.192
85.451175,0.42,2.999,-11.768
85.461779,0.42,6.458,-12.438
85.472383,0.91,10.444,-14.08
85.482987,0.49,13.963,-15.095
85.493591,0.91,17.759,-16.06
85.504195,1.47,21.761,-16.989
85.514799,1.96,25.653,-18.506
85.525377,3.43,29.643,-19.367
85.535955,4.27,33.358,-20.276
85.546533,5.39,36.63,-21.902
85.557111,6.65,40.506,-22.924
85.567689,6.93,42.935,-22.994
85.578267,7,44.33,-22.037
85.588845,6.44,45.101,-20.764
85.599423,5.18,45.028,-19.142
85.610001,3.85,44.732,-17.062
85.620579,2.59,43.767,-16.023
85.631157,1.68,43.098,-14.649
85.641735,0.98,42.328,-13.505
85.652266,0.56,41.359,-13.249
85.662797,0.35,40.593,-13.74
85.673328,0.77,39.923,-14.782
85.683859,0.21,40.004,-16.047
85.69439,-0.21,38.95,-16.517
85.704921,-0.42,38.257,-16.213
85.715452,-0.91,37.596,-15.69
85.725983,-1.26,36.959,-15.305
85.736514,-2.38,34.956,-15.231
85.747045,-4.34,33.233,-15.535
85.757576,-7.21,31.963,-15.19
85.768107,-8.89,30.646,-14.57
85.778638,-9.45,29.21,-14.894
85.789173,-9.59,28.35,-15.259
85.799708,-8.96,27.612,-15.105
85.810243,-8.96,26.996,-14.431
85.820778,-8.75,26.38,-13.758
85.831313,-8.75,25.577,-12.834
85.841848,-9.94,25.188,-11.836
85.852383,-10.5,24.872,-11.252
85.862918,-11.2,24.223,-10.798
85.873453,-11.69,23.704,-10.676
85.883988,-12.11,22.946,-10.81
85.894523,-13.02,22.114,-10.53
85.905058,-13.23,21.458,-10.432
85.915565,-13.51,21.149,-10.7
85.926072,-13.37,20.659,-11.142
85.936579,-13.72,20.8,-11.543
85.947086,-14,20.31,-11.985
85.957593,-13.58,19.912,-12.553
85.9681,-13.51,19.961,-12.829
85.978607,-14.07,19.551,-13.327
85.989114,-14.42,19.276,-13.376
85.999621,-14.84,18.809,-12.747
86.010128,-14.91,18.517,-12.301
86.020635,-14.91,17.832,-11.64
86.031142,-15.33,17.35,-10.517
86.041649,-15.75,16.811,-9.475
86.052155,-15.75,15.915,-8.424
86.062661,-15.33,15.57,-7.277
86.073167,-14.7,15.161,-6.567
86.083673,-14.7,14.67,-5.801
86.094179,-14.56,13.928,-5.221
86.104685,-14.07,12.975,-4.251
86.115191,-14.42,12.448,-3.278
86.125697,-15.05,11.418,-2.678
86.136203,-15.19,10.92,-2.268
86.146709,-15.89,10.194,-2.183
86.157215,-16.03,9.626,-1.786
86.167721,-16.73,9.193,-0.938
86.178233,-16.8,8.511,-0.703
86.188745,-16.87,8.065,0.214
86.199257,-17.36,7.688,1.142
86.209769,-17.43,7.615,1.556
86.220281,-17.64,7.291,1.783
86.230793,-18.13,6.967,2.01
86.241305,-18.41,6.926,2.643
86.251817,-18.27,6.902,2.781
86.262329,-18.76,6.484,3.134
86.272841,-19.46,6.286,3.454
86.283353,-19.25,6.411,3.547
86.293865,-18.83,6.286,3.454
86.304377,-18.76,6.436,3.409
86.314918,-18.69,5.974,3.612
86.325459,-17.78,6.249,3.661
86.336,-17.22,6.33,3.604
86.346541,-16.52,6.553,3.146
86.357082,-16.38,6.695,2.744
86.367623,-15.89,6.529,2.075
86.378164,-15.54,6.407,1.556
86.388705,-14.91,6.622,0.741
86.399246,-13.86,6.642,-0.179
86.409787,-13.09,6.585,-1.469
86.420328,-11.62,6.747,-2.791
86.430869,-10.71,7.023,-3.951
86.441461,-8.96,6.897,-5.252
86.452053,-7.63,6.905,-6.104
86.462645,-6.65,6.775,-6.98
86.473237,-5.6,6.828,-7.681
86.483829,-4.76,6.872,-8.739
86.494421,-4.27,6.531,-9.226
86.505013,-3.29,6.491,-9.802
86.515605,-3.64,6.324,-10.471
86.526197,-3.57,6.454,-10.803
86.536789,-3.15,6.438,-10.309
86.547381,-3.43,6.316,-9.619
86.557973,-4.06,6.11,-8.447
86.568593,-3.99,6.284,-7.422
86.579213,-4.55,6.041,-6.043
86.589833,-3.92,6.041,-4.834
86.600453,-3.64,6.362,-3.427
86.611073,-3.85,6.305,-2.3
86.621693,-3.64,5.985,-1.29
86.632313,-3.78,5.961,0.056
86.642933,-3.71,5.819,0.457
86.653553,-3.71,6.302,0.542
86.664173,-3.64,6.383,0.486
86.674793,-3.5,5.908,0.757
86.685413,-4.13,5.482,0.753
86.696061,-3.78,5.3,0.579
86.706709,-3.85,5.105,0.474
86.717357,-3.57,4.68,0.47
86.728005,-3.71,3.877,0.186
86.738653,-3.78,3.39,0.527
86.749301,-3.08,2.94,0.661
86.759949,-3.01,2.814,0.567
86.770597,-2.73,2.388,0.563
86.781245,-2.73,2.206,0.389
86.791893,-2.94,1.444,0.681
86.802541,-2.73,1.492,0.405
86.813189,-3.29,1.062,-0.381
86.823837,-3.08,0.981,-0.325
86.83452,-3.22,0.576,-1.249
86.845203,-3.57,0.113,-2.255
86.855886,-3.99,-0.098,-3.074
86.866569,-3.64,-0.163,-3.512
86.877252,-3.92,-0.284,-4.031
86.887935,-4.34,-0.451,-4.7
86.898618,-4.06,-0.528,-5.069
86.909301,-3.85,-0.585,-5.15
86.919984,-3.22,-0.374,-5.539
86.930667,-3.78,-0.362,-5.608
86.94135,-3.85,-0.252,-5.02
86.952033,-4.55,-0.126,-4.927
86.962766,-4.76,-0.256,-4.594
86.973499,-4.48,-0.272,-4.1
86.984232,-4.9,0.032,-3.406
86.994965,-5.04,0.15,-2.461
87.005698,-5.39,0.288,-1.229
87.016431,-5.67,0.272,-0.734
87.027164,-5.53,0.45,-0.134
87.037897,-5.81,0.762,-0.292
87.04863,-6.09,0.714,-0.016
87.059363,-5.81,0.779,0.422
87.070096,-6.02,0.556,0.88
87.080829,-6.02,0.681,0.973
87.09162,-5.88,0.406,0.924
87.102411,-5.46,-0.19,0.677
87.113202,-5.6,-0.17,0.965
87.123993,-5.53,-0.535,0.616
87.134784,-5.32,-0.483,-0.085
87.145575,-5.46,-0.377,-0.28
87.156366,-5.46,-0.397,-0.568
87.167157,-5.81,-0.26,-0.543
87.177948,-5.46,-0.179,-0.6
87.188739,-5.67,0.085,-0.483
87.19953,-5.39,0.373,-0.503
87.210321,-5.39,0.316,-0.584
87.221121,-5.25,0.182,-1.034
87.231921,-4.97,0.381,-1.354
87.242721,-4.9,0.385,-1.78
87.253521,-4.62,0.482,-2.332
87.264321,-4.69,0.575,-2.457
87.275121,-4.27,0.425,-2.413
87.285921,-4.48,0.247,-3.013
87.296721,-4.97,0.15,-3.67
87.307521,-4.9,0.024,-3.763
87.318321,-5.25,-0.102,-3.856
87.329121,-5.18,0.15,-3.67
87.339921,-5.53,0.279,-4.002
87.350721,-5.11,0.304,-4.14
87.36155,-5.46,0.831,-3.905
87.372379,-6.23,1.2,-3.982
87.383208,-6.79,1.682,-3.897
87.394037,-7.28,2.27,-4.007
87.404866,-7.84,2.477,-3.97
87.415695,-8.26,3.377,-4.238
87.426524,-8.4,3.698,-4.039
87.437353,-8.54,3.856,-3.727
87.448182,-8.54,3.831,-3.589
87.459011,-8.61,3.783,-3.313
87.46984,-9.03,3.779,-2.888
87.480669,-8.82,3.337,-2.397
87.491522,-8.82,2.696,-1.586
87.502375,-8.89,2.291,-1.302
87.513228,-9.1,2.177,-1.464
87.524081,-8.54,1.82,-1.456
87.534934,-8.54,1.553,-1.148
87.545787,-8.54,0.872,-0.912
87.55664,-8.26,0.377,-0.929
87.567493,-8.19,0.105,-1.403
87.578346,-7.84,-0.11,-1.796
87.589199,-7.98,-0.284,-1.614
87.600052,-8.12,-0.564,-1.237
87.610905,-7.21,-0.75,-0.985
87.621758,-6.93,-0.925,-0.803
87.632593,-7.07,-0.718,-0.766
87.643428,-7.21,-1.144,-0.77
87.654263,-7.7,-0.981,-0.884
87.665098,-7.56,-1.042,-0.539
87.675933,-7.7,-1.054,-0.47
87.686768,-7.84,-0.985,-0.458
87.697603,-8.19,-0.88,-0.653
87.708438,-8.61,-0.604,-0.604
87.719273,-8.89,-0.681,-0.973
87.730108,-9.1,-0.227,-1.533
87.740943,-8.82,-0.065,-1.646
87.751778,-8.89,-0.049,-2.141
87.762597,-8.89,0.227,-2.092
87.773416,-8.68,0.113,-2.255
87.784235,-7.7,0.036,-2.624
87.795054,-6.23,-0.118,-2.153
87.805873,-4.97,-0.288,-2.396
87.816692,-4.13,-0.167,-3.086
87.827511,-3.57,0.04,-3.049
87.83833,-3.22,0.604,-3.021
87.849149,-3.08,0.746,-3.423
87.859968,-2.87,0.802,-3.341
87.870787,-3.01,1.204,-3.2
87.881606,-2.8,2.169,-3.029
87.892425,-2.8,2.234,-2.591
87.903244,-2.87,2.344,-2.003
87.914063,-2.87,2.072,-1.27
87.924882,-3.15,2.031,-0.637
87.935701,-2.1,2.222,-0.106
87.94652,-2.03,2.218,0.32
87.957339,-2.17,2.251,0.539
87.968158,-2.1,2.453,-0.207
87.978977,-2.31,2.036,0.146
87.989796,-3.08,1.578,1.131
88.000615,-3.36,1.046,1.322
88.011434,-3.71,0.584,1.525
88.022242,-4.06,-0.008,2.06
88.03305,-4.2,-0.478,1.906
88.043858,-4.48,-0.839,1.131
88.054666,-4.34,-1.058,1.164
88.065474,-4.55,-1.496,1.229
88.076282,-4.97,-1.67,1.411
88.08709,-4.97,-1.889,1.444
88.097898,-5.39,-1.885,1.018
88.108706,-5.53,-2.011,0.925
88.119514,-6.09,-1.731,0.548
88.130322,-6.23,-1.65,0.491
88.14113,-6.23,-1.265,-0.081
88.151925,-5.88,-1.135,-0.413
88.16272,-6.09,-1.168,-0.632
88.173515,-6.16,-0.973,-0.527
88.18431,-6.93,-0.876,-1.079
88.195105,-7.84,-0.819,-0.997
88.2059,-7.91,-0.738,-1.054
88.216695,-7.84,-0.957,-1.022
88.22749,-8.82,-0.746,-1.411
88.238285,-8.75,-0.365,-1.557
88.24908,-8.89,-0.377,-1.488
88.259875,-8.75,-0.454,-1.857
88.27067,-8.61,-0.211,-2.027
88.281455,-8.61,-0.134,-2.867
88.29224,-8.54,0.004,-2.843
88.303025,-8.26,-0.001,-3.625
88.31381,-8.05,0.012,-3.694
88.324595,-8.05,-0.033,-3.844
88.33538,-8.05,0.016,-4.12
88.346165,-7.91,-0.029,-4.27
88.35695,-7.77,-0.074,-4.42
88.367735,-7.21,-0.284,-4.031
88.37852,-6.16,-0.495,-3.641
88.389305,-5.67,-0.621,-3.735
88.40009,-4.69,-0.605,-3.021
88.410875,-3.64,-0.483,-2.502
88.421628,-2.94,-0.438,-2.352
88.432381,-2.31,-0.572,-1.594
88.443134,-2.66,-0.88,-0.653
88.453887,-3.5,-0.779,-0.422
88.46464,-4.34,-0.957,0.187
88.475393,-4.97,-0.969,0.256
88.486146,-5.81,-1.111,0.657
88.496899,-6.93,-0.997,0.819
88.507652,-7.21,-1.375,0.54
88.518405,-7.56,-1.565,0.008
88.529158,-8.05,-1.598,-0.211
88.539911,-8.26,-1.582,-0.705
88.550664,-8.05,-1.59,-1.062
88.561384,-7.98,-1.436,-1.533
88.572104,-8.12,-1.488,-2.039
88.582824,-7.7,-1.497,-2.396
88.593544,-6.86,-1.484,-2.465
88.604264,-6.37,-1.748,-2.583
88.614984,-5.53,-1.46,-2.603
88.625704,-5.11,-1.42,-2.027
88.636424,-4.76,-1.359,-2.372
88.647144,-4.27,-1.302,-2.291
88.657864,-3.99,-1.018,-1.885
88.668584,-3.64,-1.01,-1.529
88.679304,-3.57,-0.653,-1.537
88.689996,-3.85,-0.519,-1.087
88.700688,-4.55,-0.698,-0.478
88.71138,-5.32,-0.77,-0.065
88.722072,-6.3,-0.616,0.673
88.732764,-6.58,-0.482,1.123
88.743456,-7.07,-0.361,1.642
88.754148,-7.28,-0.28,1.586
88.76484,-7.63,-0.235,1.736
88.775532,-7.07,-0.304,1.723
88.786224,-7.28,-0.247,1.805
88.796916,-6.86,-0.446,2.125
88.807608,-6.51,-0.616,1.882
88.818257,-6.86,-0.868,1.695
88.828906,-7.21,-1.095,1.371
88.839555,-7.7,-1.115,1.083
88.850204,-8.19,-1.31,0.977
88.860853,-7.77,-1.366,0.896
88.871502,-7.49,-1.387,0.608
88.882151,-7.56,-1.334,-0.093
88.8928,-7.35,-1.091,-0.263
88.903449,-7.56,-0.754,-0.559
88.914098,-7.42,-1.01,-0.32
88.924747,-7.56,-0.977,-0.101
88.935396,-7.77,-1.18,0.645
88.946045,-7.63,-1.727,1.33
88.956655,-7.56,-1.946,1.363
88.967265,-7.7,-1.865,1.306
88.977875,-6.93,-1.902,1.513
88.988485,-6.51,-2.153,1.326
88.999095,-6.44,-2.084,1.338
89.009705,-6.3,-2.072,1.27
89.020315,-6.44,-2.453,1.416
89.030925,-6.79,-2.664,1.805
89.041535,-7,-2.859,1.699
89.052145,-7.7,-2.591,1.391
89.062755,-7.28,-2.129,1.188
89.073365,-7.28,-2.068,0.844
89.083975,-6.58,-1.894,0.661
89.094585,-6.86,-1.602,0.215
89.105177,-6.72,-1.16,-0.276
89.115769,-6.93,-0.848,-0.434
89.126361,-6.79,-0.722,-0.341
89.136953,-6.93,-0.385,-0.637
89.147545,-6.72,-0.426,-0.004
89.158137,-6.72,-0.47,-0.154
89.168729,-6.86,-0.689,-0.122
89.179321,-6.93,-0.77,-0.065
89.189913,-6.86,-0.884,-0.227
89.200505,-6.65,-0.973,-0.527
89.211097,-6.3,-1.444,-0.681
89.221659,-5.81,-1.582,-0.705
89.232221,-6.44,-1.277,-1.22
89.242783,-6.37,-1.76,-1.305
89.253345,-7.14,-2.336,-1.265
89.263907,-7.56,-2.616,-0.888
89.274469,-8.12,-2.822,-0.924
89.285031,-8.05,-3.143,-1.123
89.295593,-8.75,-3.35,-1.159
89.306155,-8.75,-3.208,-1.561
89.316717,-8.82,-3.309,-1.792
89.327279,-8.75,-3.309,-1.792
89.337841,-8.75,-2.94,-1.869
89.348403,-8.54,-2.397,-2.129
89.358952,-8.68,-2.097,-2.218
89.369501,-8.75,-1.566,-2.408
89.38005,-9.24,-1.245,-2.21
89.390599,-9.52,-1.184,-2.554
89.401148,-9.24,-0.69,-2.538
89.411697,-9.31,-0.475,-2.145
89.422246,-9.73,-0.268,-2.109
89.432795,-9.17,-0.13,-2.084
89.443344,-8.96,0.008,-2.06
89.453893,-8.75,0.158,-2.105
89.464442,-8.68,0.134,-1.967
89.474991,-9.1,0.665,-2.157
89.485547,-8.96,0.725,-2.502
89.496103,-8.19,1.2,-2.774
89.506659,-8.33,1.545,-2.713
89.517215,-8.19,2.096,-2.616
89.527771,-8.05,2.36,-2.498
89.538327,-7.91,2.891,-2.689
89.548883,-7.91,3.308,-3.042
89.559439,-8.19,3.39,-3.098
89.569995,-7.7,3.272,-2.835
89.580551,-8.47,3.146,-2.928
89.591107,-8.33,2.948,-2.608
89.601663,-8.05,2.193,-1.959
89.612219,-7.98,1.727,-1.33
89.622775,-8.05,1.622,-1.136
89.633331,-8.05,1.127,-1.152
89.643887,-7.84,0.811,-0.568
89.654443,-7.7,-0.032,-0.219
89.664999,-7.35,-0.649,-0.754
89.675555,-7,-1.107,-0.977
89.686111,-6.65,-1.614,-0.924
89.696667,-5.88,-2.186,-1.309
89.707223,-5.25,-2.563,-1.589
89.717779,-5.32,-2.778,-1.983
89.728335,-5.18,-2.847,-1.995
89.738891,-5.39,-2.697,-2.039
89.749464,-5.32,-3.305,-2.218
89.760037,-4.62,-2.81,-2.201
89.77061,-4.48,-2.636,-2.384
89.781183,-4.41,-2.6,-2.591
89.791756,-4.9,-2.3,-2.68
89.802329,-4.9,-1.691,-2.502
89.812902,-5.32,-0.884,-2.644
89.823475,-5.46,-0.171,-2.66
89.834048,-5.46,0.235,-2.944
89.844621,-5.11,0.632,-2.376
89.855194,-4.9,1.553,-2.356
89.865767,-4.55,2.339,-2.786
89.876379,-4.41,2.927,-2.896
89.886991,-4.27,3.15,-2.146
89.897603,-4.2,3.134,-1.651
89.908215,-4.41,3.086,-1.375
89.918827,-4.27,3.094,-1.018
89.929439,-4.48,2.944,-0.974
89.940051,-4.83,2.834,-0.353
89.950663,-5.25,2.206,0.389
89.961275,-5.53,1.703,1.224
89.971887,-5.6,1.213,1.991
89.982499,-5.81,0.081,2.36
89.993111,-5.25,-0.49,1.975
90.003739,-5.32,-0.872,2.121
90.014367,-4.9,-1.281,2.831
90.024995,-4.62,-1.82,2.664
90.035623,-4.76,-2.291,2.51
90.046251,-4.48,-2.368,2.141
90.056879,-4.69,-2.388,1.853
90.067507,-5.18,-2.477,1.553
90.078135,-4.69,-2.441,1.347
90.088763,-4.83,-1.999,0.856
90.099391,-4.41,-2.007,0.499
90.110019,-3.64,-1.683,0.272
90.120647,-3.78,-1.573,-0.349
90.131275,-3.08,-1.257,-0.932
90.141903,-2.8,-1.196,-1.277
90.152556,-2.66,-1.245,-1.001
90.163209,-2.52,-1.338,-0.876
90.173862,-3.15,-1.407,-0.888
90.184515,-3.5,-1.407,-0.888
90.195168,-4.27,-1.614,-0.924
90.205821,-4.27,-1.882,-0.616
90.216474,-4.83,-1.801,-0.673
90.227127,-5.6,-1.776,-0.811
90.23778,-5.74,-2.376,-0.632
90.248433,-5.88,-2.328,-0.908
90.259086,-6.02,-2.06,-1.216
90.269774,-6.37,-1.841,-1.249
90.280462,-6.65,-1.764,-0.88
90.29115,-6.44,-1.683,-0.936
90.301838,-6.72,-1.476,-0.9
90.312526,-7.42,-1.363,-0.738
90.323214,-7.63,-1.306,-0.657
90.333902,-7.77,-1.042,-0.539
90.34459,-7.7,-0.766,-0.491
90.355278,-7.42,-0.56,-0.454
90.365966,-7.07,-0.499,-0.799
90.376654,-6.72,-0.276,-1.257
90.387342,-6.79,-0.211,-0.819
90.398078,-6.3,-0.162,-1.095
90.408814,-5.81,0.126,-1.115
90.41955,-5.67,0.198,-1.529
90.430286,-6.3,0.154,-1.679
90.441022,-5.88,0.47,-1.054
90.451758,-6.79,0.576,-1.249
90.462494,-7.07,0.612,-1.456
90.47323,-7.49,0.734,-0.937
90.483966,-8.12,0.787,-0.43
90.494702,-8.54,0.673,-0.592
90.505438,-8.96,0.349,-0.365
90.516174,-9.8,-0.081,0.057
90.526962,-10.29,-0.495,-0.016
90.53775,-10.22,-0.722,-0.341
90.548538,-10.64,-1.091,-0.263
90.559326,-10.99,-1.196,-0.069
90.570114,-11.13,-1.723,-0.304
90.580902,-10.92,-2.092,-0.227
90.59169,-10.57,-1.914,-0.835
90.602478,-11.48,-2.153,-1.09
90.613266,-11.34,-2.21,-1.172
90.624054,-10.85,-2.279,-1.184
90.634842,-10.15,-1.865,-1.111
90.64563,-9.87,-1.715,-1.155
90.656446,-9.94,-2.088,-0.653
90.667262,-9.66,-2.595,-0.6
90.678078,-9.1,-2.733,-0.624
90.688894,-8.82,-2.721,-0.693
90.69971,-8.47,-2.891,-0.936
90.710526,-8.33,-2.648,-1.107
90.721342,-7.84,-2.206,-1.597
90.732158,-8.12,-2.389,-1.772
90.742974,-8.26,-2.502,-1.934
90.75379,-8.26,-2.62,-1.67
90.764606,-8.89,-2.559,-2.015
90.775422,-8.82,-2.271,-2.035
90.786238,-9.52,-2.028,-2.206
90.797084,-9.31,-2.016,-2.275
90.80793,-8.89,-1.683,-2.145
90.818776,-9.17,-1.484,-2.465
90.829622,-8.89,-1.29,-2.36
90.840468,-8.4,-0.771,-2.482
90.851314,-8.19,-0.84,-2.494
90.86216,-7.63,-0.759,-2.55
90.873006,-7.49,-0.3,-2.328
90.883852,-6.79,-0.28,-2.04
90.894698,-6.37,-0.3,-2.328
90.905544,-6.51,-0.231,-2.315
90.91639,-6.09,-0.361,-1.983
90.927231,-6.02,-0.142,-2.015
90.938072,-5.88,-0.337,-2.121
90.948913,-6.65,-0.702,-1.261
90.959754,-6.58,-0.633,-1.249
90.970595,-6.58,-0.726,-1.123
90.981436,-7.63,-0.831,-0.928
90.992277,-7.56,-0.811,-0.641
91.003118,-8.05,-1.135,-0.413
91.013959,-8.26,-1.586,-0.28
91.0248,-8.26,-1.565,0.008
91.035641,-8.47,-1.521,0.158
91.046482,-9.38,-1.496,0.02
91.057323,-9.45,-1.358,0.045
91.068162,-9.45,-1.476,0.308
91.079001,-9.52,-1.338,0.333
91.08984,-8.96,-1.614,0.284
91.100679,-8.47,-1.44,0.102
91.111518,-8.75,-1.221,0.069
91.122357,-8.4,-1.508,0.089
91.133196,-8.26,-1.245,0.207
91.144035,-8.4,-1.034,-0.182
91.154874,-8.4,-0.994,-0.815
91.165713,-8.68,-0.487,-0.868
91.176552,-8.54,-0.471,-1.362
91.187391,-9.03,-0.389,-1.419
91.198185,-9.45,-0.434,-1.569
91.208979,-8.75,-0.134,-1.658
91.219773,-9.1,0.044,-1.058
91.230567,-8.96,0.089,-0.908
91.241361,-9.03,0.503,-0.835
91.252155,-9.59,0.596,0.247
91.262949,-9.38,0.438,-0.065
91.273743,-9.38,0.495,0.016
91.284537,-9.24,0.531,-0.191
91.295331,-9.45,0.693,-0.304
91.306125,-9.94,0.681,-0.235
91.316919,-10.01,0.357,-0.008
91.327713,-10.15,0.195,0.105
91.338493,-9.87,0.069,0.012
91.349273,-9.38,-0.02,-0.288
91.360053,-9.03,-0.15,0.045
91.370833,-8.68,-0.179,-0.6
91.381613,-8.26,-0.106,-1.014
91.392393,-7.84,0.04,-0.633
91.403173,-7.35,-0.251,-0.186
91.413953,-7.56,-0.353,-0.418
91.424733,-7.49,-0.308,-0.268
91.435513,-7.56,-0.138,-0.024
91.446293,-7.56,0.077,0.369
91.457073,-7.28,0.004,0.783
91.467823,-7.28,0.065,0.438
91.478573,-6.93,0.182,0.174
91.489323,-6.58,0.341,0.487
91.500073,-5.25,0.405,-0.284
91.510823,-5.04,1.119,-0.3
91.521573,-4.48,1.2,-0.357
91.532323,-4.48,1.488,-0.377
91.543073,-4.27,1.293,-0.483
91.553823,-4.34,1.65,-0.491
91.564573,-4.55,1.744,-0.617
91.575323,-4.41,1.756,-0.686
91.586073,-5.18,1.78,-0.823
91.596823,-5.46,1.581,-0.503
91.607543,-5.53,1.411,-0.746
91.618263,-6.44,1.22,-1.277
91.628983,-6.44,1.265,-1.127
91.639703,-6.79,1.139,-1.221
91.650423,-7.14,0.896,-1.05
91.661143,-7.56,0.697,-0.73
91.671863,-7.77,0.389,-0.998
91.682583,-8.33,-0.024,-1.071
91.693303,-8.47,-0.325,-0.981
91.704023,-8.82,-0.616,-0.535
91.714743,-9.87,-0.698,-0.478
91.725463,-11.06,-0.941,-0.308
91.736157,-11.06,-0.766,-0.491
91.746851,-11.83,-0.973,-0.527
91.757545,-11.76,-1.192,-0.495
91.768239,-12.32,-1.249,-0.576
91.778933,-13.09,-1.517,-0.267
91.789627,-13.23,-1.419,-0.819
91.800321,-13.23,-1.407,-0.888
91.811015,-13.23,-1.428,-1.176
91.821709,-13.37,-1.553,-1.269
91.832403,-13.65,-2.153,-1.09
91.843097,-12.81,-2.129,-1.228
91.853791,-12.74,-2.04,-2.137
91.864485,-12.39,-2.04,-2.137
91.875179,-12.74,-2.267,-2.461
91.885871,-13.09,-2.377,-3.049
91.896563,-13.3,-2.604,-3.373
91.907255,-13.58,-2.073,-3.564
91.917947,-13.09,-1.7,-4.067
91.928639,-12.39,-1.452,-4.663
91.939331,-11.9,-0.767,-5.324
91.950023,-11.97,-0.418,-5.689
91.960715,-10.92,-0.086,-5.559
91.971407,-10.22,0.409,-5.543
91.982099,-9.59,0.603,-5.438
91.992791,-9.38,0.62,-4.724
92.003482,-8.89,0.948,-4.169
92.014173,-8.4,1.366,-4.522
92.024864,-7.98,1.905,-4.355
92.035555,-7.42,1.962,-4.274
92.046246,-7.21,2.262,-4.363
92.056937,-6.3,2.514,-4.177
92.067628,-5.67,2.745,-4.278
92.078319,-5.11,2.862,-4.542
92.08901,-5.11,2.781,-4.485
92.099701,-4.9,2.505,-4.534
92.110392,-4.9,2.493,-4.465
92.121083,-5.04,2.25,-4.295
92.131774,-5.25,2.205,-4.445
92.142441,-5.18,2.355,-4.489
92.153108,-5.46,2.157,-4.169
92.163775,-5.88,2.396,-3.913
92.174442,-5.88,2.291,-3.719
92.185109,-5.74,2.278,-3.65
92.195776,-5.6,2.197,-3.593
92.206443,-6.44,2.262,-3.155
92.21711,-6.51,2.307,-3.005
92.227777,-6.44,2.226,-2.948
92.238444,-6.16,2.457,-3.05
92.249111,-6.3,2.502,-2.9
92.259778,-5.95,2.396,-2.705
92.27041,-6.37,2.258,-2.729
92.281042,-6.58,1.97,-2.709
92.291674,-6.93,2.258,-2.729
92.302306,-6.72,2.088,-2.973
92.312938,-7.07,2.019,-2.985
92.32357,-6.72,2.12,-2.754
92.334202,-6.58,1.865,-2.514
92.344834,-6.72,1.979,-2.352
92.355466,-6.44,1.991,-2.421
92.366098,-6.3,2.068,-2.052
92.37673,-5.81,1.792,-2.101
92.387362,-6.09,1.5,-1.655
92.397994,-5.74,1.577,-1.286
92.408598,-5.39,1.285,-0.84
92.419202,-4.48,0.916,-0.762
92.429806,-4.13,0.6,-1.387
92.44041,-3.71,0.341,-0.722
92.451014,-2.94,0.134,-0.758
92.461618,-2.17,-0.122,-0.519
92.472222,-1.89,-0.223,-0.75
92.482826,-2.1,-0.462,-1.006
92.49343,-1.68,-0.981,-0.884
92.504034,-1.89,-1.059,-1.253
92.514638,-1.82,-1.079,-1.541
92.525242,-1.68,-1.18,-1.772
92.535851,-2.45,-1.176,-2.198
92.54646,-3.01,-1.266,-2.498
92.557069,-3.5,-0.941,-2.725
92.567678,-3.57,-0.329,-2.972
92.578287,-3.99,-0.329,-2.972
92.588896,-4.69,-0.142,-3.224
92.599505,-5.25,0.02,-3.337
92.610114,-5.46,0.097,-2.968
92.620723,-5.74,0.077,-3.256
92.631332,-5.95,0.401,-2.275
92.641941,-5.95,0.494,-2.401
92.65255,-6.37,0.231,-2.518
92.663151,-5.74,0.357,-2.425
92.673752,-6.09,0.178,-1.817
92.684353,-5.18,0.223,-1.667
92.694954,-5.67,-0.004,-1.991
92.705555,-5.25,-0.061,-2.072
92.716156,-5.46,0.028,-1.772
92.726757,-5.6,-0.102,-1.44
92.737358,-5.46,-0.033,-1.427
92.747959,-5.6,0.004,-1.634
92.75856,-5.74,-0.191,-1.74
92.769161,-5.81,-0.033,-1.427
92.779762,-6.58,-0.207,-1.245
92.790363,-7.21,-0.239,-1.464
92.800976,-7.77,-0.191,-1.74
92.811589,-7.7,-0.373,-1.914
92.822202,-7.63,-0.341,-1.695
92.832815,-7.77,-0.199,-2.096
92.843428,-7.35,-0.337,-2.121
92.854041,-7.28,-0.3,-2.328
92.864654,-7.35,-0.199,-2.096
92.875267,-7.63,-0.361,-1.983
92.88588,-7.91,-0.219,-2.384
92.896493,-8.26,-0.3,-2.328
92.907106,-8.82,-0.402,-2.559
92.917719,-9.03,-0.613,-3.378
92.928336,-9.94,-0.73,-3.114
92.938953,-10.71,-0.467,-2.997
92.94957,-10.64,-0.232,-3.524
92.960187,-10.57,-0.021,-3.913
92.970804,-10.85,0.141,-4.027
92.981421,-11.2,0.024,-3.763
92.992038,-11.34,-0.179,-3.017
93.002655,-11.48,-0.272,-2.891
93.013272,-11.13,-0.446,-2.709
93.023889,-11.41,-0.426,-2.421
93.034506,-11.48,-0.321,-2.615
93.045123,-11.06,-0.552,-2.514
93.05574,-10.43,-0.852,-2.425
93.066393,-10.57,-1.034,-2.599
93.077046,-10.5,-1.326,-2.153
93.087699,-10.08,-1.756,-1.731
93.098352,-9.45,-2.129,-1.228
93.109005,-9.38,-2.336,-1.265
93.119658,-9.24,-2.429,-1.139
93.130311,-8.47,-2.547,-0.876
93.140964,-7.84,-3.135,-0.766
93.151617,-7.42,-2.932,-0.304
93.16227,-6.86,-3.013,-0.247
93.172923,-6.58,-3.058,-0.397
93.183576,-6.44,-3.009,-0.673
93.194261,-5.67,-2.952,-0.592
93.204946,-5.67,-2.761,-0.06
93.215631,-5.53,-2.51,0.126
93.226316,-5.11,-2.567,0.045
93.237001,-4.41,-2.753,0.296
93.247686,-3.64,-2.782,0.86
93.258371,-3.01,-2.737,1.01
93.269056,-2.17,-2.737,1.01
93.279741,-2.38,-2.859,0.491
93.290426,-2.03,-2.295,0.519
93.301111,-2.17,-2.246,0.244
93.311796,-2.1,-2.092,-0.227
93.322509,-2.87,-1.853,0.029
93.333222,-3.43,-1.959,0.223
93.343935,-4.41,-2.546,0.333
93.354648,-5.04,-2.177,0.256
93.365361,-5.74,-1.74,0.191
93.376074,-6.23,-1.508,0.089
93.386787,-7.07,-1.484,-0.048
93.3975,-7.77,-1.61,-0.142
93.408213,-8.12,-1.671,0.203
93.418926,-8.33,-1.695,0.341
93.429639,-8.75,-1.865,0.098
93.440352,-8.75,-1.877,0.167
93.451065,-8.54,-1.715,0.053
93.461819,-8.05,-1.776,0.398
93.472573,-7.63,-1.731,0.548
93.483327,-8.12,-1.8,0.536
93.494081,-8.33,-1.869,0.523
93.504835,-7.77,-1.995,0.43
93.515589,-7.42,-1.865,0.098
93.526343,-7.63,-1.845,0.385
93.537097,-7.42,-1.622,-0.073
93.547851,-6.86,-1.484,-0.048
93.558605,-7.21,-1.569,0.434
93.569359,-7.35,-1.594,0.572
93.580113,-7.35,-1.662,0.56
93.590867,-7.63,-1.719,0.479
93.601621,-7.28,-1.938,0.511
93.612375,-6.86,-1.776,0.398
93.623126,-6.72,-1.707,0.41
93.633877,-7.14,-1.683,0.272
93.644628,-6.65,-1.796,0.11
93.655379,-6.58,-1.967,-0.134
93.66613,-7.49,-2.401,-0.494
93.676881,-7.28,-2.242,-0.182
93.687632,-7.56,-2.113,-0.515
93.698383,-7.21,-1.549,-0.486
93.709134,-7.42,-1.569,-0.774
93.719885,-7.28,-1.521,-1.05
93.730661,-6.86,-1.74,-1.018
93.741437,-6.79,-1.869,-0.685
93.752213,-6.72,-1.683,-0.936
93.762989,-6.51,-1.728,-1.086
93.773765,-7.42,-1.667,-1.431
93.784541,-7.07,-1.359,-1.164
93.795317,-7.28,-1.35,-0.807
93.806093,-7.91,-1.245,-1.001
93.816869,-7.56,-1.444,-0.681
93.827645,-7.63,-1.221,-1.139
93.838421,-7.35,-1.152,-1.127
93.849197,-6.79,-0.921,-1.229
93.85997,-6.79,-0.807,-1.066
93.870743,-6.86,-0.819,-0.997
93.881516,-6.86,-0.852,-1.216
93.892289,-7.14,-0.702,-1.261
93.903062,-7.56,-0.584,-1.525
93.913835,-7.56,-0.576,-1.168
93.924608,-8.19,-0.507,-1.156
93.935381,-8.61,-0.45,-1.075
93.946154,-8.47,-0.308,-1.476
93.956927,-8.19,-0.333,-1.338
93.9677,-8.12,-0.187,-0.957
93.978473,-7.56,-0.28,-0.831
93.989246,-7.56,-0.292,-0.762
94.000014,-7.98,-0.077,-0.369
94.010782,-7.77,-0.053,-0.507
94.02155,-8.12,-0.385,-0.637
94.032318,-8.33,-0.466,-0.58
94.043086,-8.26,-0.479,-0.511
94.053854,-8.54,-0.665,-0.259
94.064622,-9.03,-0.653,-0.328
94.07539,-8.89,-0.629,-0.466
94.086158,-8.68,-0.677,-0.19
94.096926,-8.75,-0.746,-0.203
94.107694,-8.82,-0.637,-0.823
94.118462,-8.75,-0.803,-0.284
94.12924,-8.33,-0.547,-0.523
94.140018,-8.82,-0.491,-0.442
94.150796,-8.96,-0.389,-0.211
94.161574,-8.61,-0.255,0.239
94.172352,-8.96,-0.292,0.446
94.18313,-8.68,-0.474,0.272
94.193908,-8.05,-0.608,-0.178
94.204686,-7.49,-0.373,-0.706
94.215464,-6.86,-0.515,-0.304
94.226242,-6.79,-0.86,-0.365
94.23702,-6.72,-1.217,-0.357
94.247798,-7,-1.367,-0.312
94.258537,-6.51,-1.829,-0.109
94.269276,-6.86,-1.667,-0.223
94.280015,-7.07,-1.76,-0.097
94.290754,-7.28,-1.74,0.191
94.301493,-8.19,-1.59,0.146
94.312232,-8.61,-1.419,0.389
94.322971,-8.19,-1.196,-0.069
94.33371,-7.98,-1.091,-0.263
94.344449,-8.4,-1.046,-0.113
94.355188,-8.26,-0.953,-0.239
94.365927,-8.12,-0.726,-1.123
94.376666,-8.33,-0.981,-0.884
94.387405,-8.33,-1.176,-0.989
94.39812,-8.33,-1.513,-0.693
94.408835,-8.19,-1.626,-0.855
94.41955,-8.4,-1.294,-0.726
94.430265,-8.4,-1.281,-0.795
94.44098,-8.54,-1.383,-1.026
94.451695,-8.33,-1.65,-0.718
94.46241,-8.68,-1.853,0.029
94.473125,-8.68,-1.946,0.154
94.48384,-8.89,-1.703,-0.016
94.494555,-9.1,-1.634,-0.004
94.50527,-8.68,-1.184,-0.138
94.515985,-9.1,-0.86,-0.365
94.52668,-9.24,-1.071,0.024
94.537375,-9.24,-1.31,-0.231
94.54807,-8.82,-1.334,-0.093
94.558765,-8.82,-1.504,-0.336
94.56946,-9.03,-1.468,-0.543
94.580155,-8.47,-1.204,-0.426
94.59085,-8.05,-0.92,-0.02
94.601545,-7.77,-0.896,-0.158
94.61224,-7.28,-1.127,-0.057
94.622935,-7.49,-1.346,-0.024
94.63363,-7.07,-1.067,-0.401
94.644325,-7.28,-0.916,-0.446
94.654979,-7.28,-1.123,-0.482
94.665633,-7.14,-0.929,-0.377
94.676287,-7.49,-0.998,-0.389
94.686941,-7.77,-1.285,-0.369
94.697595,-7.91,-0.953,-0.239
94.708249,-8.4,-0.884,-0.227
94.718903,-8.19,-0.823,-0.572
94.729557,-8.12,-0.434,-0.361
94.740211,-8.89,-0.255,0.239
94.750865,-9.24,0.049,0.933
94.761519,-9.8,0.556,0.88
94.772173,-9.45,1.152,1.127
94.782827,-8.82,1.261,0.507
94.793448,-7.91,0.916,0.446
94.804069,-7.63,0.629,0.466
94.81469,-7.84,-0.016,0.495
94.825311,-7.91,-0.434,0.848
94.835932,-8.26,-0.535,0.616
94.846553,-8.89,-0.535,0.616
94.857174,-9.38,-0.474,0.272
94.867795,-9.66,-0.114,-0.162
94.878416,-9.31,-0.182,-0.174
94.889037,-9.31,-0.211,-0.819
94.899658,-9.38,-0.223,-0.75
94.910279,-9.17,-0.243,-1.038
94.9209,-8.47,-0.248,-1.821
94.931507,-8.54,-0.13,-2.084
94.942114,-8.4,-0.479,-1.719
94.952721,-8.19,-0.458,-1.431
94.963328,-7.98,-0.519,-1.087
94.973935,-7.56,-0.487,-0.868
94.984542,-7.77,-0.507,-1.156
94.995149,-7.63,-0.556,-0.88
95.005756,-7.21,-0.588,-1.099
95.016363,-6.65,-0.507,-1.156
95.02697,-6.16,-0.6,-1.03
95.037577,-6.09,-0.852,-1.216
95.048202,-5.74,-0.969,-0.953
95.058827,-6.37,-1.253,-1.358
95.069452,-6.02,-1.379,-1.451
95.080077,-5.88,-1.152,-1.127
95.090702,-5.6,-1.249,-0.576
95.101327,-5.95,-0.779,-0.422
95.111952,-5.81,-1.148,-0.345
95.122577,-5.74,-1.367,-0.312
95.133202,-5.95,-1.5,-0.762
95.143827,-6.02,-1.841,-0.04
95.154452,-6.16,-1.886,-0.19
95.165077,-6.93,-2.096,0.199
95.175714,-7,-2.153,0.118
95.186351,-7.07,-2.226,0.532
95.196988,-7.63,-2.534,0.264
95.207625,-7.63,-1.946,0.154
95.218262,-7.42,-1.61,-0.142
95.228899,-7.63,-1.618,-0.499
95.239536,-7.77,-0.937,-0.734
95.250173,-7.7,-0.856,-0.791
95.26081,-7.84,-0.762,-0.916
95.271447,-8.19,-0.69,-1.33
95.282084,-8.82,-0.657,-1.111
95.292721,-9.03,-0.519,-1.087
95.303358,-8.82,-0.722,-0.341
95.314007,-9.1,-0.608,-0.178
95.324656,-8.82,-0.608,-0.178
95.335305,-7.98,-0.75,0.223
95.345954,-7.77,-0.949,0.544
95.356603,-7.35,-1.168,0.576
95.367252,-6.79,-1.326,0.264
95.377901,-5.95,-1.322,-0.162
95.38855,-5.6,-1.484,-0.048
95.399199,-5.74,-1.622,-0.073
95.409848,-5.67,-1.796,0.11
95.420497,-5.88,-1.877,0.167
95.431146,-5.95,-1.934,0.085
95.441801,-5.67,-2.105,-0.158
95.452456,-5.74,-2.023,-0.215
95.463111,-5.53,-1.732,-0.661
95.473766,-5.53,-1.432,-0.75
95.484421,-5.81,-1.29,-1.151
95.495076,-5.6,-1.31,-1.439
95.505731,-6.02,-0.921,-1.229
95.516386,-6.02,-0.645,-1.18
95.527041,-6.02,-0.58,-0.742
95.537696,-6.09,-0.462,-1.006
95.548351,-6.3,-0.564,-1.237
95.559006,-6.16,-0.649,-0.754
95.569661,-6.44,-0.807,-1.066
95.58031,-6.79,-0.54,-1.375
95.590959,-7.28,-0.588,-1.099
95.601608,-6.86,-0.653,-1.537
95.612257,-7.35,-0.552,-1.306
95.622906,-7.7,-0.637,-0.823
95.633555,-7.7,-0.661,-0.685
95.644204,-7.91,-0.892,-0.584
95.654853,-8.26,-1.018,-0.677
95.665502,-7.91,-0.819,-0.997
95.676151,-8.26,-0.9,-0.941
95.6868,-8.4,-1.245,-1.001
95.697449,-8.54,-1.614,-0.924
95.708098,-8.82,-1.626,-0.855
95.718748,-8.68,-1.683,-0.936
95.729398,-8.26,-1.602,-0.993
95.740048,-7.98,-1.513,-0.693
95.750698,-8.12,-1.419,-0.819
95.761348,-7.77,-1.387,-0.6
95.771998,-7.91,-1.517,-0.267
95.782648,-7.7,-1.634,-0.004
95.793298,-7.63,-1.253,-0.15
95.803948,-7.35,-1.054,-0.47
95.814598,-7.14,-1.273,-0.438
95.825248,-6.79,-1.318,-0.588
95.835898,-6.58,-1.354,-0.381
95.846576,-6.93,-1.407,-0.888
95.857254,-6.72,-1.614,-0.924
95.867932,-6.44,-1.444,-0.681
95.87861,-6.16,-1.744,-0.592
95.889288,-6.37,-2.08,-0.296
95.899966,-6.09,-2.015,0.142
95.910644,-6.3,-1.914,0.373
95.921322,-6.3,-1.946,0.154
95.932,-6.3,-2.096,0.199
95.942678,-6.3,-2.036,-0.146
95.953356,-6.3,-2.015,0.142
95.964034,-6.23,-2.51,0.126
95.974746,-6.16,-2.774,0.008
95.985458,-6.58,-2.911,-0.016
95.99617,-6.51,-2.887,-0.154
96.006882,-7.14,-2.421,-0.782
96.017594,-7.63,-2.445,-0.644
96.028306,-7.77,-2.307,-0.62
96.039018,-7.56,-2.251,-0.539
96.04973,-7.7,-2.474,-0.081
96.060442,-7.84,-1.886,-0.19
96.071154,-7.63,-1.703,-0.016
96.081866,-7.63,-1.577,0.077
96.092578,-7.7,-1.857,0.454
96.10329,-7.63,-1.719,0.479
96.114027,-7.21,-1.764,0.329
96.124764,-7,-2.064,0.418
96.135501,-7.07,-2.153,0.118
96.146238,-7.35,-1.91,-0.052
96.156975,-6.65,-1.877,0.167
96.167712,-6.79,-1.926,0.442
96.178449,-6.72,-2.109,0.268
96.189186,-6.72,-2.181,0.682
96.199923,-6.79,-1.809,0.179
96.21066,-6.93,-1.772,-0.028
96.221397,-6.44,-1.792,-0.316
96.232134,-6.65,-1.736,-0.235
96.242861,-6.72,-1.796,0.11
96.253588,-6.93,-1.391,-0.174
96.264315,-7.21,-1.484,-0.048
96.275042,-7.21,-1.371,0.114
96.285769,-7.21,-1.123,-0.482
96.296496,-7.56,-1.375,-0.669
96.307223,-7.63,-1.375,-0.669
96.31795,-7.77,-1.411,-0.462
96.328677,-8.12,-1.294,-0.726
96.339404,-8.05,-1.306,-0.657
96.350131,-8.05,-1.375,-0.669
96.360858,-8.05,-1.663,-0.649
96.371585,-8.05,-1.663,-0.649
96.382345,-7.7,-1.63,-0.43
96.393105,-7.84,-1.699,-0.442
96.403865,-7.77,-1.768,-0.454
96.414625,-7.56,-2.133,-0.803
96.425385,-8.12,-1.865,-1.111
96.436145,-8.12,-2.084,-1.078
96.446905,-8.33,-1.955,-1.411
96.457665,-8.82,-2.332,-0.482
96.468425,-8.75,-2.907,-0.442
96.479185,-8.75,-3.037,-0.109
96.489945,-8.33,-3.163,-0.202
96.500705,-7.84,-3.159,-0.628
96.511484,-7.07,-3.11,-0.904
96.522263,-7.07,-3.224,-1.066
96.533042,-7.14,-3.341,-0.802
96.543821,-7.63,-3.204,-0.778
96.5546,-7.42,-3.536,-0.908
96.565379,-7.7,-3.41,-0.815
96.576158,-7.77,-3.074,-1.111
96.586937,-8.26,-3.054,-0.823
96.597716,-8.33,-2.685,-0.9
96.608495,-8.19,-2.283,-0.758
96.619274,-8.33,-1.857,-0.754
96.630053,-8.61,-1.813,-0.604
96.640832,-8.75,-1.93,-0.34
96.651593,-8.68,-1.78,-0.385
96.662354,-8.33,-1.61,-0.142
96.673115,-8.12,-1.886,-0.19
96.683876,-7.84,-1.898,-0.121
96.694637,-7.7,-2.129,-0.02
96.705398,-7.28,-2.023,-0.215
96.716159,-7.07,-2.21,0.037
96.72692,-6.93,-2.275,-0.401
96.737681,-6.86,-2.125,-0.446
96.748442,-6.37,-2.088,-0.653
96.759203,-6.3,-1.801,-0.673
96.769964,-6.09,-2.194,-0.458
96.780725,-6.3,-2.145,-0.734
96.791476,-5.53,-2.007,-0.709
96.802227,-5.81,-1.926,-0.766
96.812978,-6.16,-1.695,-0.868
96.823729,-6.3,-1.363,-0.738
96.83448,-7.07,-1.419,-0.819
96.845231,-7.21,-1.294,-0.726
96.855982,-7.21,-0.925,-0.803
96.866733,-7.56,-0.795,-1.135
96.877484,-7.77,-0.685,-0.547
96.888235,-7.7,-0.56,-0.454
96.898986,-7.98,-0.596,-0.247
96.909737,-7.63,-0.446,-0.292
96.920481,-7.77,-0.495,-0.016
96.931225,-7.91,-0.572,-0.385
96.941969,-7.91,-0.677,-0.19
96.952713,-7.77,-0.852,-0.008
96.963457,-7.42,-0.714,0.016
96.974201,-7.7,-1.067,-0.401
96.984945,-7.84,-1.135,-0.413
96.995689,-8.33,-0.88,-0.653
97.006433,-8.4,-0.961,-0.596
97.017177,-8.68,-0.892,-0.584
97.027921,-8.82,-0.722,-0.341
97.038665,-9.03,-0.547,-0.523
97.049374,-9.17,-0.535,-0.592
97.060083,-9.45,-0.519,-1.087
97.070792,-8.75,-0.45,-1.075
97.081501,-7.7,-0.381,-1.062
97.09221,-7.63,-0.389,-1.419
97.102919,-7.28,-0.54,-1.375
97.113628,-7,-0.398,-1.776
97.124337,-7.07,-0.434,-1.569
97.135046,-6.72,-0.446,-1.5
97.145755,-6.65,-0.584,-1.525
97.156464,-6.65,-0.641,-1.606
97.167173,-6.51,-0.564,-1.237
97.177882,-6.72,-0.694,-0.904
97.188594,-6.93,-0.491,-1.65
97.199306,-6.65,-0.54,-1.375
97.210018,-6.93,-0.402,-1.35
97.22073,-7.35,-0.454,-1.857
97.231442,-6.93,-0.596,-1.456
97.242154,-7,-0.783,-1.204
97.252866,-6.93,-0.714,-1.192
97.263578,-6.51,-0.852,-1.216
97.27429,-6.79,-0.912,-0.872
97.285002,-6.51,-1.059,-1.253
97.295714,-6.44,-0.75,-0.985
97.306426,-6.44,-0.771,-1.273
97.317151,-7,-0.596,-1.456
97.327876,-6.72,-0.734,-1.48
97.338601,-6.65,-0.698,-1.687
97.349326,-7.07,-0.491,-1.65
97.360051,-6.93,-0.69,-1.33
97.370776,-6.86,-0.588,-1.099
97.381501,-7.21,-0.564,-1.237
97.392226,-7.42,-0.649,-0.754
97.402951,-7.07,-0.507,-1.156
97.413676,-7.07,-0.462,-1.006
97.424401,-7.14,-0.406,-0.924
97.435126,-7,-0.256,-0.969
97.445832,-7.07,-0.462,-1.006
97.456538,-6.93,-0.3,-1.119
97.467244,-6.93,-0.426,-1.212
97.47795,-6.93,-0.653,-1.537
97.488656,-7.14,-0.88,-1.861
97.499362,-7,-0.641,-1.606
97.510068,-7,-0.823,-1.78
97.520774,-6.37,-0.896,-1.366
97.53148,-6.3,-0.653,-1.537
97.542186,-6.44,-0.592,-1.881
97.552892,-6.93,-0.536,-1.8
97.563598,-7.14,-0.345,-2.478
97.574304,-7,-0.3,-2.328
97.585012,-7.28,-0.454,-1.857
97.59572,-7.84,-0.734,-1.48
97.606428,-8.12,-0.929,-1.585
97.617136,-7.7,-0.754,-1.768
97.627844,-7.7,-1.055,-1.679
97.638552,-7.63,-0.702,-1.261
97.64926,-7.7,-0.641,-1.606
97.659968,-7.42,-1.01,-1.529
97.670676,-7.42,-1.168,-1.841
97.681384,-7.63,-1.03,-1.816
97.692092,-7.56,-1.257,-2.141
97.7028,-7.56,-1.27,-2.072
97.71349,-7.91,-1.338,-2.084
97.72418,-7.84,-1.326,-2.153
97.73487,-7.98,-1.326,-2.153
97.74556,-7.35,-1.249,-1.784
97.75625,-7.84,-1.598,-1.419
97.76694,-7.35,-1.545,-0.912
97.77763,-7.07,-1.196,-1.277
97.78832,-6.86,-1.314,-1.014
97.79901,-6.79,-1.156,-0.701
97.8097,-7.14,-1.468,-0.543
97.82039,-6.86,-1.703,-0.016
97.83108,-7.21,-1.727,0.122
97.84177,-7.07,-1.809,0.179
97.852462,-7.63,-1.959,0.223
97.863154,-7.14,-2.222,0.106
97.873846,-7.21,-2.336,-0.056
97.884538,-7.07,-2.567,0.045
97.89523,-7.35,-2.818,-0.142
97.905922,-7.14,-2.693,-0.048
97.916614,-7.28,-2.717,0.09
97.927306,-7.49,-2.652,0.528
97.937998,-7.98,-2.384,0.219
97.94869,-7.84,-2.555,-0.024
97.959382,-8.12,-2.636,0.033
97.970074,-8.61,-2.915,0.41
97.980759,-8.33,-2.709,0.446
97.991444,-8.47,-2.847,0.422
98.002129,-8.54,-2.36,0.081
98.012814,-8.68,-2.591,0.183
98.023499,-8.54,-2.214,0.463
98.034184,-8.26,-2.441,0.138
98.044869,-8.19,-2.546,0.333
98.055554,-8.12,-2.705,0.021
98.066239,-8.12,-2.591,0.183
98.076924,-8.05,-2.542,-0.093
98.087609,-7.84,-2.344,-0.413
98.098294,-8.12,-2.457,-0.575
98.108979,-8.61,-2.032,-0.571
98.119664,-8.68,-1.634,-1.212
98.130364,-8.19,-1.598,-1.419
98.141064,-8.54,-1.606,-1.776
98.151764,-8.47,-1.492,-1.614
98.162464,-8.4,-1.602,-0.993
98.173164,-8.26,-1.857,-0.754
98.183864,-7.14,-1.476,-0.9
98.194564,-7.28,-1.565,-1.2
98.205264,-6.65,-1.541,-1.338
98.215964,-6.79,-1.561,-1.626
98.226664,-7,-1.46,-1.395
98.237354,-7.21,-1.168,-1.841
98.248044,-7.56,-1.132,-2.048
98.258734,-7.98,-1.026,-2.242
98.269424,-7.91,-0.714,-2.4
98.280114,-7.98,-0.576,-2.376
98.290804,-8.4,-0.54,-2.583
98.301494,-8.54,-0.528,-2.652
98.312184,-8.26,-0.369,-2.34
98.322874,-8.33,-0.325,-2.19
98.333564,-8.68,-0.361,-1.983
98.344254,-8.33,-0.248,-1.821
98.354944,-8.89,-0.122,-1.727
98.365634,-9.1,0.016,-1.703
98.376322,-9.1,0.048,-1.484
98.38701,-8.33,0.255,-1.448
98.397698,-8.54,0.336,-1.504
98.408386,-8.75,0.158,-2.105
98.419074,-8.47,0.146,-2.036
98.429762,-8.26,-0.138,-2.441
98.44045,-8.12,-0.15,-2.372
98.451138,-8.12,-0.098,-1.865
98.461826,-7.7,0.004,-1.634
98.472514,-7.28,0.004,-1.634
98.483202,-7.21,-0.154,-1.946
98.49389,-7.07,0.077,-2.048
98.50454,-7.07,0.073,-1.622
98.51519,-7.07,-0.134,-1.658
98.52584,-7.63,0.016,-1.703
98.53649,-7.98,0.028,-1.772
98.54714,-8.26,-0.308,-1.476
98.55779,-7.91,-0.211,-2.027
98.56844,-8.12,-0.179,-1.809
98.57909,-8.47,-0.207,-1.245
98.58974,-8.12,-0.454,-0.649
98.60039,-7.91,-0.442,-0.718
98.61104,-7.42,-0.369,-1.131
98.62169,-7.63,-0.495,-1.225
98.63234,-7.42,-0.738,-1.054
98.643006,-7.56,-0.787,-0.778
98.653672,-7.98,-0.718,-0.766
98.664338,-8.19,-0.718,-0.766
98.675004,-7.7,-0.844,-0.86
98.68567,-8.05,-0.994,-0.815
98.696336,-7.91,-1.054,-0.47
98.707002,-8.33,-1.192,-0.495
98.717668,-8.4,-1.285,-0.369
98.728334,-8.33,-1.152,0.081
98.739,-8.26,-1.257,0.276
98.749666,-7.7,-1.095,0.162
98.760318,-7.07,-1.103,-0.194
98.77097,-7.07,-1.265,-0.081
98.781622,-7.35,-1.44,0.102
98.792274,-7.42,-1.346,-0.024
98.802926,-7.84,-1.508,0.089
98.813578,-7.49,-1.529,-0.198
98.82423,-7.56,-1.423,-0.393
98.834882,-7.28,-1.423,-0.393
98.845534,-7.21,-1.537,-0.555
98.856186,-7.14,-1.423,-0.393
98.866838,-6.72,-1.342,-0.45
98.87749,-6.79,-1.204,-0.426
98.888142,-7,-1.241,-0.219
98.898805,-7,-1.403,-0.105
98.909468,-7.21,-0.985,-0.458
98.920131,-7.35,-1.087,-0.689
98.930794,-7.35,-0.981,-0.884
98.941457,-6.93,-1.05,-0.896
98.95212,-6.86,-1.213,-0.782
98.962783,-6.51,-1.176,-0.989
98.973446,-6.23,-1.29,-1.151
98.984109,-5.81,-1.452,-1.038
98.994772,-5.74,-1.359,-1.164
99.005435,-5.81,-1.302,-1.083
99.016098,-5.81,-1.533,-0.981
99.026755,-5.39,-1.452,-1.038
99.037412,-5.74,-1.484,-1.257
99.048069,-5.88,-1.5,-0.762
99.058726,-6.09,-1.464,-0.969
99.069383,-6.58,-1.334,-1.301
99.08004,-7.21,-1.14,-1.196
99.090697,-6.79,-0.876,-1.079
99.101354,-6.72,-0.677,-1.399
99.112011,-6.72,-0.981,-0.884
99.122668,-6.79,-0.99,-1.241
99.133325,-6.58,-1.014,-1.103
99.143982,-6.72,-1.176,-0.989
99.154639,-6.51,-0.803,-1.492
99.16531,-6.72,-0.908,-1.297
99.175981,-6.93,-0.953,-1.447
99.186652,-6.86,-0.836,-1.711
99.197323,-7,-1.01,-1.529
99.207994,-7.14,-1.136,-1.622
99.218665,-7,-0.917,-1.654
99.229336,-7.21,-1.055,-1.679
99.240007,-6.93,-0.986,-1.666
99.250678,-7.07,-0.698,-1.687
99.261349,-7,-0.953,-1.447
99.27202,-6.72,-0.884,-1.435
99.282691,-6.86,-1.002,-1.172
99.293342,-6.79,-1.075,-0.758
99.303993,-6.86,-1.026,-1.034
99.314644,-6.93,-1.014,-1.103
99.325295,-6.72,-1.002,-1.172
99.335946,-6.86,-0.746,-1.411
99.346597,-6.72,-0.949,-1.873
99.357248,-6.86,-0.961,-1.804
99.367899,-7.07,-1.03,-1.816
99.37855,-7,-1.144,-1.979
99.389201,-6.93,-1.294,-1.934
99.399852,-7.35,-1.545,-2.121
99.410503,-7.49,-1.444,-1.889
99.421154,-7.14,-1.492,-1.614
99.431789,-7,-1.642,-1.569
99.442424,-7.28,-1.841,-1.249
99.453059,-6.72,-2.06,-1.216
99.463694,-6.72,-2.79,-0.705
99.474329,-6.72,-3.22,-0.283
99.484964,-6.51,-3.564,-0.344
99.495599,-6.93,-4.063,0.065
99.506234,-6.51,-5,0.54
99.516869,-6.58,-5.876,0.67
99.527504,-6.23,-6.614,0.824
99.538139,-5.88,-7.214,1.003
99.548774,-5.95,-8.008,1.076
99.559409,-5.6,-8.832,0.504
99.570048,-5.46,-9.509,0.314
99.580687,-5.25,-9.854,0.253
99.591326,-5.39,-10.267,0.18
99.601965,-5.81,-10.916,-0.574
99.612604,-6.02,-11.573,-0.477
99.623243,-5.6,-12.1,-0.712
99.633882,-6.02,-12.206,-0.517
99.644521,-5.88,-12.794,-0.408
99.65516,-5.88,-13.09,-0.744
99.665799,-6.16,-13.714,-0.428
99.676438,-6.23,-13.738,-0.29
99.687077,-6.23,-14.659,-0.31
99.697799,-6.09,-15.247,-0.201
99.708521,-5.95,-15.823,-0.16
99.719243,-5.67,-16.078,0.079
99.729965,-5.95,-16.63,-0.018
99.740687,-5.53,-17.136,0.035
99.751409,-5.39,-17.676,-0.131
99.762131,-5.25,-18.41,-0.403
99.772853,-4.41,-18.677,-0.095
99.783575,-4.9,-19.095,0.258
99.794297,-4.97,-19.586,-0.184
99.805019,-4.48,-19.768,-0.358
99.815784,-5.11,-20.689,-0.378
99.826549,-5.04,-21.183,-0.394
99.837314,-4.97,-21.832,0.06
99.848079,-5.11,-22.055,0.518
99.858844,-5.25,-22.302,1.114
99.869609,-4.83,-22.363,1.459
99.880374,-4.83,-22.963,1.637
99.891139,-4.55,-23.251,1.658
99.901904,-4.41,-23.369,1.921
99.912669,-4.62,-23.304,2.359
99.923434,-4.9,-23.94,2.745
99.934199,-4.69,-24.544,3.349
99.944964,-4.62,-24.463,3.292
99.9558,-4.83,-24.694,3.393
99.966636,-5.18,-24.419,3.442
99.977472,-4.83,-24.682,3.324
99.988308,-5.11,-24.946,3.207
99.999144,-5.46,-24.869,3.576
100.00998,-5.46,-24.727,3.174
100.020816,-5.32,-24.853,3.081
100.031652,-4.69,-25.059,3.045
100.042488,-4.48,-25.047,2.976
100.053324,-4.2,-25.072,3.114
100.06416,-3.71,-25.437,2.765
100.074996,-3.5,-25.287,2.72
100.08585,-3.43,-25.404,2.984
100.096704,-3.15,-25.647,3.154
100.107558,-3.36,-25.842,3.049
100.118412,-3.15,-26.268,3.045
100.129266,-3.43,-26.462,2.939
100.14012,-2.59,-26.73,3.248
100.150974,-2.52,-26.904,3.43
100.161828,-1.89,-26.742,3.317
100.172682,-1.96,-27.034,3.763
100.183536,-1.82,-27.565,3.953
100.19439,-1.61,-27.371,4.059
100.205244,-1.68,-27.476,4.253
100.216098,-1.89,-27.618,4.655
100.226999,-2.1,-27.768,4.7
100.2379,-2.38,-27.561,4.736
100.248801,-1.96,-27.334,5.06
100.259702,-2.03,-27.208,5.154
100.270603,-2.17,-26.86,4.789
100.281504,-2.52,-26.754,4.594
100.292405,-2.38,-26.324,4.172
100.303306,-2.38,-25.757,3.775
100.314207,-2.45,-25.157,3.596
100.325108,-2.59,-24.796,3.162
100.336009,-2.87,-24.127,2.996
100.34691,-2.8,-23.377,2.773
100.35781,-2.59,-22.777,2.594
100.36871,-2.38,-22.326,2.46
100.37961,-2.45,-21.613,2.444
100.39051,-1.82,-20.899,2.428
100.40141,-2.31,-20.449,2.294
100.41231,-2.52,-20.129,2.493
100.42321,-3.08,-19.046,2.399
100.43411,-3.01,-18.182,2.338
100.44501,-3.5,-17.282,2.07
100.45591,-4.27,-16.637,2.042
100.46681,-5.18,-15.879,2.176
100.47771,-5.88,-15.396,2.261
100.48861,-6.09,-15.06,1.965
100.499521,-6.37,-14.042,1.433
100.510432,-6.72,-13.045,0.614
100.521343,-7.28,-12.096,0.071
100.532254,-7,-10.584,-0.445
100.543165,-7.42,-9.59,-0.838
100.554076,-7.84,-8.216,-1.378
100.564987,-7.56,-7.186,-1.978
100.575898,-7.98,-5.531,-2.894
100.586809,-8.47,-3.76,-4.075
100.59772,-8.96,-2.178,-4.578
100.608631,-9.17,-0.281,-5.665
100.619542,-9.17,1.264,-5.961
100.630423,-8.89,3.203,-6.472
100.641304,-9.17,5.575,-7.831
100.652185,-9.17,7.951,-8.407
100.663066,-9.52,10.059,-8.675
100.673947,-9.73,12.435,-9.251
100.684828,-10.78,14.536,-9.876
100.695709,-11.41,16.713,-10.132
100.70659,-12.39,19.215,-10.615
100.717471,-13.37,21.429,-11.077
100.728352,-14.42,23.769,-11.446
100.739233,-14.98,26.437,-12.469
100.750114,-15.75,28.695,-12.781
100.760995,-16.59,30.999,-12.944
100.77183,-17.99,33.14,-12.993
100.782665,-18.69,35.654,-13.545
100.7935,-20.72,38.881,-14.113
100.804335,-22.61,43.399,-14.738
100.81517,-24.99,50.053,-16.194
100.826005,-27.65,59.14,-18.146
100.83684,-31.43,69.548,-19.936
100.847675,-35.84,80.347,-20.306
100.85851,-40.25,90.525,-19.578
100.869345,-44.31,100.731,-19.413
100.88018,-47.95,111.432,-20.441
100.891015,-51.17,121.963,-21.711
100.90185,-54.81,131.715,-22.195
100.912631,-57.47,140.129,-22.346
100.923412,-60.34,146.986,-22.132
100.934193,-62.51,151.617,-21.387
100.944974,-64.89,156.386,-21.825
100.955755,-68.32,159.508,-22.199
100.966536,-70.56,161.742,-22.374
100.977317,-71.33,162.549,-22.516
100.988098,-71.75,162.72,-22.272
100.998879,-71.96,161.864,-21.855
101.00966,-70.98,160.838,-21.68
101.020441,-69.23,159.585,-21.83
101.031222,-67.48,157.481,-21.988
101.041981,-65.31,154.358,-21.614
101.05274,-63.35,151.269,-21.022
101.063499,-60.83,147.149,-21.038
101.074258,-58.24,142.858,-21.296
101.085017,-55.79,138.82,-21.369
101.095776,-53.69,135.316,-22.058
101.106535,-51.87,131.152,-22.223
101.117294,-50.19,126.922,-21.619
101.128053,-49.07,123.561,-21.501
101.138812,-48.23,119.498,-21.435
101.149571,-46.97,115.71,-21.321
101.16033,-46.83,111.874,-20.931
101.171051,-46.83,108.675,-20.927
101.181772,-45.71,106.019,-21.182
101.192493,-44.73,103.253,-20.816
101.203214,-43.33,101.258,-20.386
101.213935,-42.77,99.892,-19.49
101.224656,-41.86,98.797,-18.119
101.235377,-40.95,97.358,-16.809
101.246098,-39.83,96.377,-15.276
101.256819,-38.99,95.375,-14.031
101.26754,-38.01,94.828,-13.346
101.278261,-37.17,94.398,-12.924
101.288982,-36.33,93.644,-12.275
101.299703,-36.4,92.923,-11.407
101.31039,-37.03,93.389,-10.828
101.321077,-37.1,93.58,-10.296
101.331764,-37.38,93.183,-8.447
101.342451,-37.59,92.846,-6.943
101.353138,-37.24,91.946,-5.467
101.363825,-36.05,90.361,-3.33
101.374512,-35.63,88.382,-0.977
101.385199,-35.42,86.7,0.503
101.395886,-34.37,84.498,0.897
101.406573,-33.81,82.114,1.116
101.41726,-34.16,79.535,1.23
101.427947,-34.44,77.232,1.392
101.438617,-34.58,74.458,1.401
101.449287,-34.58,71.838,0.939
101.459957,-34.51,68.955,1.568
101.470627,-34.16,66.21,2.221
101.481297,-33.18,64.317,2.882
101.491967,-31.64,62.123,3.633
101.502637,-29.82,61.093,4.233
101.513307,-28.21,60.558,4.849
101.523977,-26.46,59.755,5.774
101.534647,-24.43,59.07,6.435
101.545317,-22.19,58.178,7.06
101.555987,-20.93,57.464,8.284
101.566628,-19.53,57.083,9.639
101.577269,-18.34,56.901,10.673
101.58791,-18.06,56.674,11.557
101.598551,-17.85,57.072,12.125
101.609192,-17.85,57.404,12.254
101.619833,-17.71,58.223,12.043
101.630474,-18.2,59.444,11.974
101.641115,-19.32,60.855,12.436
101.651756,-20.37,62.331,13.336
101.662397,-21.21,63.568,13.981
101.673038,-22.12,63.957,15.4
101.683679,-22.4,63.418,17.651
101.69432,-22.96,62.214,19.642
101.704958,-22.68,60.706,20.94
101.715596,-23.24,59.364,21.698
101.726234,-22.61,57.929,21.374
101.736872,-22.26,57.105,20.802
101.74751,-21.7,56.943,19.707
101.758148,-21.21,56.61,18.369
101.768786,-20.3,56.217,17.376
101.779424,-19.88,55.41,16.31
101.790062,-18.83,55.109,15.19
101.8007,-17.43,55.507,13.341
101.811338,-16.59,56.216,11.334
101.821976,-15.96,56.556,9.404
101.832586,-15.68,57.051,8.212
101.843196,-15.61,56.917,6.553
101.853806,-15.61,56.669,4.732
101.864416,-15.68,56.823,3.054
101.875026,-16.45,57.013,1.168
101.885636,-16.03,57.009,-0.823
101.896246,-15.89,56.77,-2.287
101.906856,-16.1,56.344,-3.499
101.917466,-15.54,55.561,-4.703
101.928076,-14.63,54.924,-5.526
101.938686,-14.77,53.306,-6.025
101.949296,-14.91,52.065,-6.244
101.959906,-13.72,50.455,-6.386
101.970522,-12.18,48.963,-5.582
101.981138,-10.99,47.719,-4.167
101.991754,-10.64,46.454,-1.831
102.00237,-11.27,46.117,-0.327
102.012986,-11.41,46.718,0.703
102.023602,-11.06,47.541,1.275
102.034218,-10.15,48.336,2.41
102.044834,-10.22,47.76,3.659
102.05545,-10.36,47.091,3.825
102.066066,-10.22,45.737,3.444
102.076682,-10.15,44.67,3.043
102.087298,-10.85,43.559,2.492
102.097901,-10.57,42.574,2.034
102.108504,-10.22,41.998,2.074
102.119107,-8.68,40.846,2.156
102.12971,-6.23,40.104,2.736
102.140313,-4.41,39.711,2.951
102.150916,-3.43,39.095,3.624
102.161519,-2.73,39.411,3.04
102.172122,-3.71,39.897,1.491
102.182725,-4.55,41.036,-0.938
102.193328,-5.32,42.058,-3.104
102.203931,-7.14,41.648,-4.811
102.214534,-7.21,41.478,-6.263
102.225137,-7.63,41.907,-7.893
102.235762,-8.12,42.633,-9.186
102.246387,-8.96,44.672,-10.675
102.257012,-9.8,46.61,-12.394
102.267637,-10.43,48.95,-13.972
102.278262,-10.92,51.748,-15.327
102.288887,-11.97,54.278,-16.374
102.299512,-11.27,56.966,-17.108
102.310137,-10.85,59.586,-17.854
102.320762,-9.87,61.982,-18.143
102.331387,-9.31,63.791,-18.321
102.342012,-10.92,65.587,-18.431
102.352637,-13.37,66.102,-18.127
102.363251,-14.84,66.69,-18.236
102.373865,-16.24,66.852,-18.35
102.384479,-16.94,65.786,-18.751
102.395093,-15.47,64.731,-19.222
102.405707,-14.77,62.683,-19.298
102.416321,-13.23,60.21,-19.379
102.426935,-10.92,57.481,-19.221
102.437549,-8.96,54.529,-18.604
102.448163,-8.4,51.2,-18.267
102.458777,-9.66,47.672,-17.609
102.469391,-11.41,44.286,-16.145
102.480005,-12.67,40.73,-14.924
102.490619,-12.95,37.713,-14.745
102.501264,-11.97,35.467,-13.293
102.511909,-10.64,33.042,-12.441
102.522554,-10.71,29.884,-11.861
102.533199,-11.06,26.924,-10.393
102.543844,-10.36,24.215,-9.946
102.554489,-9.17,21.908,-10.566
102.565134,-8.47,19.669,-11.174
102.575779,-7.98,17.613,-11.608
102.586424,-7.49,15.379,-11.433
102.597069,-6.16,13.534,-11.048
102.607714,-4.83,11.596,-10.536
102.618359,-3.92,9.755,-9.368
102.629004,-3.22,8.279,-7.852
102.63964,-2.66,7.708,-5.82
102.650276,-2.1,6.824,-3.63
102.660912,-1.33,4.85,-1.704
102.671548,-0.63,1.736,0.235
102.682184,-0.07,-3.819,2.312
102.69282,0.98,-12.679,5.796
102.703456,3.43,-22.658,8.373
102.714092,5.88,-33.785,9.396
102.724728,8.68,-47.097,9.11
102.735364,10.08,-65.292,9.1
102.746,11.62,-90.461,11.557
102.756636,13.23,-119.268,12.875
102.7673,15.89,-149.177,13.998
102.777964,19.88,-176.763,14.039
102.788628,24.01,-202.634,12.818
102.799292,25.55,-225.055,10.57
102.809956,24.5,-244.267,9.884
102.82062,23.52,-260.483,9.939
102.831284,23.52,-273.755,11.437
102.841948,20.93,-283.255,15.732
102.852612,17.22,-288.936,20.133
102.863276,11.97,-289.393,24.743
102.87394,6.65,-285.018,26.936
102.884604,1.61,-277.2,26.538
102.895307,-0.42,-267.496,26.33
102.90601,0.42,-256.718,25.671
102.916713,4.06,-245.745,26.327
102.927416,7.56,-234.091,26.747
102.938119,10.85,-223.495,25.914
102.948822,14.7,-213.816,25.844
102.959525,18.83,-203.326,26.414
102.970228,18.41,-190.97,28.095
102.980931,14,-176.733,27.976
102.991634,6.86,-164.013,26.38
103.002337,0.91,-153.227,24.87
103.01304,-3.99,-144.225,24.61
103.023756,-7.56,-136.228,26.02
103.034472,-10.71,-128.28,25.289
103.045188,-12.74,-121.099,24.067
103.055904,-13.37,-114.291,23.348
103.06662,-14,-107.475,21.778
103.077336,-13.72,-99.896,18.707
103.088052,-14,-91.86,15.86
103.098768,-13.09,-84.447,15.745
103.109484,-12.88,-77.643,15.452
103.1202,-13.44,-71.265,13.947
103.130916,-14.7,-64.412,12.17
103.141632,-15.26,-56.164,10.141
103.152348,-16.17,-46.903,6.799
103.163099,-15.96,-36.494,3.801
103.17385,-15.05,-26.41,1.03
103.184601,-13.51,-16.966,-2.139
103.195352,-14.84,-7.401,-5.996
103.206103,-17.36,2.813,-7.891
103.216854,-21.77,16.519,-10.237
103.227605,-26.88,32.949,-13.524
103.238356,-32.06,49.651,-17.545
103.249107,-37.8,66.759,-19.433
103.259858,-40.95,83.161,-19.739
103.270609,-44.1,98.217,-20.07
103.28136,-48.23,109.835,-19.443
103.292097,-50.68,119.794,-18.682
103.302834,-51.31,128.942,-18.561
103.313571,-48.86,135.746,-17.646
103.324308,-45.92,141.128,-15.915
103.335045,-43.26,144.015,-13.345
103.345782,-40.04,145.321,-11.48
103.356519,-37.38,144.478,-9.922
103.367256,-35.35,141.83,-7.404
103.377993,-32.9,139.252,-4.873
103.38873,-30.94,135.193,-1.608
103.399467,-29.82,129.926,1.657
103.410204,-28.91,124.456,4.459
103.420941,-27.93,118.147,5.977
103.431707,-26.46,110.954,7.267
103.442473,-24.08,103.237,7.897
103.453239,-21,95.225,9.398
103.464005,-17.36,87.593,10.754
103.474771,-14.49,79.715,11.497
103.485537,-13.72,72.027,12.771
103.496303,-12.95,65.591,12.987
103.507069,-11.13,59.286,12.87
103.517835,-9.1,53.791,13.394
103.528601,-7.77,49.546,13.285
103.539367,-6.93,45.089,12.357
103.550133,-6.86,40.264,11.507
103.560893,-6.86,36.075,10.27
103.571653,-5.88,32.684,8.535
103.582413,-4.69,29.769,6.528
103.593173,-4.2,27.068,3.707
103.603933,-3.5,25.38,0.779
103.614693,-3.08,24.127,-1.788
103.625453,-3.71,23.595,-4.014
103.636213,-4.41,23.834,-6.175
103.646973,-5.18,24.025,-6.852
103.657733,-5.11,23.494,-6.662
103.668493,-5.32,23.019,-6.39
103.679253,-4.76,22.808,-6.001
103.690013,-3.78,23.117,-5.733
103.700758,-2.66,23.376,-5.19
103.711503,-1.54,24.029,-4.861
103.722248,-0.21,25.789,-4.764
103.732993,2.03,28.932,-4.85
103.743738,4.9,32.103,-5.499
103.754483,8.12,35.926,-5.82
103.765228,10.22,39.969,-6.173
103.775973,12.04,44.973,-7.139
103.786718,12.88,51.416,-8.206
103.797463,14.49,59.546,-8.763
103.808208,17.29,69.027,-9.721
103.818953,21,80.376,-11.203
103.829698,24.78,92.257,-12.875
103.840453,28.21,102.719,-14.158
103.851208,31.08,110.861,-14.784
103.861963,32.34,116.887,-14.29
103.872718,34.09,121.871,-13.127
103.883473,34.58,125.938,-12.41
103.894228,34.72,130.022,-10.979
103.904983,36.47,133.355,-10.533
103.915738,38.71,134.928,-11.393
103.926493,39.2,133.765,-10.034
103.937248,39.9,131.385,-7.824
103.948003,39.83,129.519,-7.727
103.958758,38.08,127.621,-9.056
103.969513,37.52,125.663,-11.25
103.98024,37.1,123.298,-14.368
103.990967,37.73,120.228,-17.113
104.001694,39.97,116.761,-19.217
104.012421,43.89,113.046,-20.725
104.023148,48.58,109.469,-22.208
104.033875,53.76,106.274,-23.838
104.044602,57.96,103.638,-25.013
104.055329,60.97,101.124,-25.67
104.066056,62.58,98.906,-25.99
104.076783,61.88,96.749,-25.446
104.08751,60.76,94.587,-24.477
104.098237,58.73,92.487,-23.852
104.108982,55.93,90.229,-22.331
104.119727,52.22,87.763,-20.847
104.130472,47.46,85.274,-19.224
104.141217,44.1,83.344,-19.565
104.151962,40.18,80.148,-21.194
104.162707,37.03,76.721,-21.514
104.173452,34.09,72.853,-21.343
104.184197,30.38,67.959,-19.79
104.194942,26.11,62.643,-17.457
104.205687,22.19,58.661,-16.24
104.216432,18.2,55.202,-15.571
104.227171,14,53.045,-15.027
104.23791,10.36,51.338,-14.617
104.248649,7.49,49.092,-13.165
104.259388,4.34,45.832,-11.608
104.270127,2.31,42.937,-9.701
104.280866,1.33,39.563,-8.306
104.291605,1.19,36.685,-6.895
104.302344,0.91,34.491,-6.144
104.313083,1.05,32.163,-7.052
104.323822,1.05,30.318,-7.875
104.334561,1.33,29.016,-8.957
104.3453,1.75,27.394,-10.239
104.356039,1.61,25.659,-10.474
104.366738,1.19,24.637,-10.725
104.377437,0.21,22.905,-11.386
104.388136,-1.4,22.224,-12.359
104.398835,-3.08,22.507,-14.37
104.409534,-4.76,23.711,-16.361
104.420233,-6.16,24.847,-17.156
104.430932,-8.05,25.353,-17.209
104.441631,-10.15,24.571,-15.996
104.45233,-12.18,23.399,-13.786
104.463029,-13.86,22.167,-11.231
104.473728,-16.52,21.652,-9.119
104.484427,-18.83,21.511,-7.509
104.495126,-20.93,22.281,-7.444
104.505823,-23.66,22.78,-6.645
104.51652,-26.81,23.295,-5.133
104.527217,-29.54,24.293,-3.535
104.537914,-32.13,24.139,-1.856
104.548611,-35,24.403,-0.531
104.559308,-39.34,24.285,0.941
104.570005,-43.12,23.357,1.773
104.580702,-45.57,23.418,1.428
104.591399,-47.53,23.912,0.236
104.602096,-49.14,23.701,-0.583
104.612793,-50.26,23.859,-1.479
104.62349,-50.05,23.847,-2.619
104.63415,-50.47,23.673,-3.645
104.64481,-50.12,23.916,-3.815
104.65547,-46.27,24.479,-4.995
104.66613,-41.3,25.931,-7.582
104.67679,-39.55,25.265,-9.05
104.68745,-39.2,22.265,-6.949
104.69811,-38.85,18.941,-2.204
104.70877,-40.32,15.571,2.39
104.71943,-41.79,11.476,5.862
104.73009,-41.65,8.598,8.482
104.74075,-40.04,7.106,9.285
104.75141,-37.73,7.183,8.446
104.76207,-34.79,7.438,8.206
104.772723,-31.43,7.876,8.141
104.783376,-30.52,8.123,7.545
104.794029,-30.03,8.577,6.986
104.804682,-30.31,8.95,6.483
104.815335,-30.73,8.804,4.893
104.825988,-31.08,8.828,3.547
104.836641,-31.78,8.735,2.464
104.847294,-32.41,8.597,1.232
104.857947,-33.18,8.69,-0.103
104.8686,-33.46,8.99,-1.4
104.879253,-34.44,9.46,-2.455
104.889906,-34.44,9.918,-3.44
104.900542,-34.02,9.748,-3.683
104.911178,-33.46,9.074,-4.3
104.921814,-33.18,8.215,-4.664
104.93245,-33.32,7.444,-4.729
104.943086,-33.18,6.504,-3.829
104.953722,-33.95,5.745,-3.963
104.964358,-33.67,5.83,-4.445
104.974994,-33.39,6.536,-4.818
104.98563,-33.95,6.804,-5.126
104.996266,-34.23,7.148,-5.066
105.006902,-34.72,7.513,-4.717
105.017538,-35.49,7.335,-4.109
105.028174,-36.54,6.853,-2.985
105.03882,-36.54,5.989,-1.716
105.049466,-36.33,4.797,0.206
105.060112,-34.79,3.443,2.242
105.070758,-33.95,0.881,5.486
105.081404,-32.41,-1.268,7.595
105.09205,-30.1,-2.586,8.216
105.102696,-28.21,-3.916,7.697
105.113342,-25.83,-5.23,7.892
105.123988,-22.54,-5.534,7.198
105.134634,-20.72,-6.386,5.982
105.14528,-19.67,-7.4,6.088
105.155926,-18.06,-7.987,6.197
105.166553,-14.91,-8.016,4.344
105.17718,-10.5,-7.81,0.755
105.187807,-9.31,-6.934,-0.583
105.198434,-8.19,-4.307,-3.389
105.209061,-9.8,-1.777,-6.853
105.219688,-12.04,-0.139,-8.483
105.230315,-13.65,1.008,-10.555
105.240942,-16.52,1.094,-8.621
105.251569,-17.08,0.802,-5.758
105.262196,-17.71,0.518,-4.955
105.272823,-18.76,-0.337,-2.121
105.28345,-18.41,-0.815,0.994
105.294077,-16.8,-0.88,2.972
105.304703,-15.61,-1.159,4.558
105.315329,-15.68,-1.361,7.721
105.325955,-17.15,-1.065,9.266
105.336581,-19.11,-0.607,10.697
105.347207,-20.72,-0.116,11.139
105.357833,-21.56,0.16,11.188
105.368459,-21.84,0.942,11.184
105.379085,-21.91,1.445,10.348
105.389711,-21.56,1.753,9.407
105.400337,-21.49,2.288,8.791
105.410963,-21.7,2.418,8.458
105.421589,-23.59,3.776,7.205
105.432256,-24.08,3.715,7.55
105.442923,-24.15,3.772,7.631
105.45359,-23.8,3.715,7.55
105.464257,-23.1,3.886,7.793
105.474924,-22.47,3.849,8
105.485591,-21.7,3.602,8.596
105.496258,-21.21,3.659,8.677
105.506925,-20.23,4.389,8.166
105.517592,-19.32,5.5,7.509
105.528259,-17.99,7.3,5.765
105.538926,-18.69,8.966,4.78
105.549593,-19.18,10.458,3.976
105.560362,-20.72,11.448,2.8
105.571131,-21.7,12.242,1.519
105.5819,-22.54,12.587,0.371
105.592669,-23.17,12.911,0.144
105.603438,-23.31,13.26,-0.221
105.614207,-23.94,13.033,-0.545
105.624976,-24.5,13.531,-0.955
105.635745,-23.17,14.075,-2.423
105.646514,-23.17,14.464,-3.42
105.657283,-22.47,14.776,-3.579
105.668052,-21.56,14.67,-3.384
105.678893,-21.84,13.568,-2.37
105.689734,-20.58,13.628,-3.923
105.700575,-19.67,13.571,-5.213
105.711416,-16.03,13.332,-6.676
105.722257,-14.35,12.423,-7.974
105.733098,-15.89,10.538,-5.747
105.743939,-17.29,8.308,-2.373
105.75478,-17.99,5.304,0.153
105.765621,-19.46,2.142,3.576
105.776462,-19.67,-0.863,8.52
105.787303,-17.71,-3.178,11.168
105.798144,-16.24,-5.079,12.681
105.808985,-15.82,-7.26,15.779
105.819915,-14.35,-8.379,16.079
105.830845,-12.46,-8.688,14.603
105.841775,-10.99,-8.258,12.973
105.852705,-10.5,-7.8,10.779
105.863635,-10.43,-7.488,8.204
105.874565,-11.06,-7.16,5.135
105.885495,-10.78,-6.861,2.629
105.896425,-10.85,-7.38,0.334
105.907355,-10.64,-7.51,-1.751
105.918285,-10.43,-7.364,-3.786
105.929215,-10.15,-7.551,-4.743
105.940145,-9.66,-7.689,-5.976
105.951157,-9.31,-7.195,-7.168
105.962169,-9.38,-6.862,-8.247
105.973181,-9.45,-5.78,-9.549
105.984193,-8.82,-4.713,-10.356
105.995205,-8.96,-3.773,-10.048
106.006217,-9.59,-3.111,-9.363
106.017229,-11.48,-2.783,-8.807
106.028241,-12.46,-2.856,-8.393
106.039253,-13.44,-3.436,-7.927
106.050265,-13.93,-4.656,-6.65
106.061277,-13.93,-6.16,-5.778
106.072289,-14.42,-7.458,-4.869
106.083371,-13.3,-9.124,-3.883
106.094453,-12.46,-10.475,-3.482
106.105535,-12.04,-11.513,-3.238
106.116617,-11.83,-12.396,-2.257
106.127699,-11.97,-12.615,-2.224
106.138781,-13.37,-12.741,-2.318
106.149863,-14.63,-13.341,-0.931
106.160945,-14.07,-13.592,-1.117
106.172027,-12.95,-14.562,-2.07
106.183109,-11.48,-14.858,-2.407
106.194191,-9.17,-14.696,-3.729
106.205273,-9.8,-14.076,-4.828
106.216405,-12.11,-13.791,-3.214
106.227537,-8.68,-12.603,-3.502
106.238669,-5.88,-11.728,-8.465
106.249801,-4.83,-10.175,-8.405
106.260933,-3.78,-8.091,-7.326
106.272065,-5.11,-5.711,-8.328
106.283197,-8.47,-3.821,-8.564
106.294329,-10.29,-1.558,-9.302
106.305461,-12.11,0.396,-9.099
106.316593,-10.08,2.472,-9.586
106.327725,-8.96,5.253,-12.863
106.338857,-6.86,8.152,-15.195
106.349974,-3.85,10.313,-17.373
106.361091,-1.26,11.923,-19.648
106.372208,1.12,12.604,-19.883
106.383325,2.1,12.308,-17.803
106.394442,0.7,10.46,-12.158
106.405559,-1.96,7.988,-4.989
106.416676,-5.04,6.237,0.105
106.427793,-7.63,5.219,4.261
106.43891,-10.01,5.143,7.517
106.450027,-11.55,5.297,9.464
106.461144,-12.46,5.63,10.802
106.472261,-12.74,5.971,11.288
106.483378,-12.81,6.372,11.43
106.494454,-12.25,6.717,11.491
106.50553,-11.27,7.69,12.018
106.516606,-9.73,9.032,12.468
106.527682,-7.91,9.924,13.052
106.538758,-6.09,10.375,14.126
106.549834,-4.41,10.006,15.412
106.56091,-3.36,9.11,16.462
106.571986,-1.75,8.267,18.019
106.583062,-1.4,6.694,20.087
106.594138,-1.05,4.763,20.956
106.605214,-0.28,2.359,20.887
106.61629,1.33,0.68,18.316
106.627323,0.14,0.181,15.101
106.638356,-1.61,-0.091,13.418
106.649389,-3.08,-0.449,11.009
106.660422,-5.32,-0.331,8.329
106.671455,-7.7,-0.478,6.739
106.682488,-10.64,-0.786,5.263
106.693521,-14.42,-1.135,4.42
106.704554,-16.94,-1.776,4.023
106.715587,-20.72,-1.69,3.54
106.72662,-23.94,-1.269,3.97
106.737653,-24.15,-0.9,3.893
106.748686,-23.38,-0.223,2.875
106.759645,-22.82,0.832,3.345
106.770604,-22.96,1.732,4.286
106.781563,-21.35,2.474,4.914
106.792522,-19.04,3.606,5.754
106.803481,-14.63,4.559,5.993
106.81444,-10.29,4.972,7.274
106.825399,-6.72,3.943,9.083
106.836358,-3.43,2.029,10.664
106.847317,-1.96,-1.089,14.237
106.858276,0.21,-4.977,18.954
106.869235,-0.28,-8.261,20.649
106.880194,-2.31,-12.275,24.064
106.891153,-3.57,-16.35,26.615
106.902032,-4.34,-18.702,24.637
106.912911,-4.48,-20.021,21.632
106.92379,-4.27,-21.501,17.533
106.934669,-4.13,-22.025,12.038
106.945548,-4.76,-22.346,7.006
106.956427,-6.16,-23.158,3.949
106.967306,-6.3,-24.889,2.08
106.978185,-6.44,-26.698,1.05
106.989064,-7.07,-28.06,0.312
106.999943,-6.02,-28.815,-0.247
107.010822,-5.46,-29.411,-1.703
106.998318,-5.46,-29.898,-3.779
107.009197,-6.44,-30.859,-5.583
107.020076,-7.63,-31.752,-7.376
107.030955,-8.26,-32.044,-9.346
107.041834,-9.59,-32.547,-10.928
107.052713,-11.76,-33.346,-11.637
107.063592,-13.44,-34.85,-11.974
107.074471,-14.77,-36.574,-12.277
107.08535,-16.03,-38.2,-11.924
107.096229,-17.15,-39.003,-12.208
107.107108,-17.71,-40.345,-12.658
107.117987,-19.53,-41.415,-12.634
107.128866,-21.35,-43.447,-11.997
107.139745,-21.42,-45.924,-11.652
107.150624,-21.63,-48.491,-11.607
107.161502,-22.19,-50.973,-10.836
107.17238,-22.12,-53.239,-10.88
107.183258,-21.42,-55.701,-11.03
107.194136,-20.86,-58.799,-10.794
107.205014,-20.51,-61.921,-9.212
107.215892,-18.97,-65.542,-7.221
107.22677,-16.94,-69.049,-6.276
107.237648,-15.26,-72.095,-6.742
107.248526,-14.14,-74.783,-7.216
107.259404,-10.29,-78.153,-7.454
107.270282,-8.47,-82.245,-9.242
107.281154,-6.44,-86.17,-9.152
107.292026,-4.55,-89.187,-8.973
107.302898,-3.29,-91.125,-8.462
107.31377,-1.89,-91.908,-8.458
107.324642,-0.28,-91.656,-7.063
107.335514,2.94,-90.78,-5.985
107.346386,3.64,-88.675,-5.827
107.357258,4.34,-85.796,-6.03
107.36813,2.73,-81.871,-6.12
107.379002,2.03,-77.824,-5.69
107.389874,0.14,-73.526,-6.283
107.400746,0.42,-68.944,-6.47
107.411618,-2.17,-64.626,-7.983
107.42249,-4.06,-59.889,-8.641
107.433338,-3.78,-55.299,-10.888
107.444186,-1.89,-49.838,-14.048
107.455034,0.28,-44.096,-16.376
107.465882,1.47,-39.636,-15.874
107.47673,1.82,-36.091,-13.401
107.487578,3.22,-33.869,-9.881
107.498426,4.2,-31.926,-5.985
107.509274,5.32,-30.847,-3.236
107.520122,5.32,-29.476,-0.933
107.53097,4.55,-28.239,0.92
107.541818,2.8,-27.213,1.954
107.552665,1.75,-26.799,3.236
107.563512,1.33,-27.229,4.866
107.574359,0.98,-27.857,6.816
107.585206,-0.98,-28.534,9.043
107.596053,-3.15,-29,10.88
107.6069,-4.83,-28.72,11.711
107.617747,-6.93,-27.487,11.573
107.628594,-8.05,-25.289,11.605
107.639441,-7.63,-23.027,10.867
107.650288,-7.7,-20.399,9.268
107.661135,-7.7,-17.456,8.295
107.671982,-7.7,-15.237,8.615
107.682785,-8.82,-13.798,9.722
107.693588,-10.08,-12.727,10.906
107.704391,-11.41,-11.928,10.407
107.715194,-13.02,-11.361,10.009
107.725997,-14.35,-10.643,9.567
107.7368,-15.75,-9.934,8.768
107.747603,-15.61,-9.512,7.99
107.758406,-14.35,-10.283,6.716
107.769209,-13.72,-11.304,6.465
107.780012,-12.95,-12.436,6.834
107.790815,-10.99,-14.037,7.05
107.801618,-11.13,-15.234,6.981
107.812421,-11.13,-16.438,7.764
107.823201,-8.68,-17.748,7.533
107.833981,-7,-17.489,3.242
107.844761,-7.14,-15.506,-0.744
107.855541,-5.95,-14.704,-2.877
107.866321,-4.34,-16.796,-1.895
107.877101,-3.78,-22.825,2.87
107.887881,-5.53,-29.219,6.078
107.898661,-7.42,-35.018,8.326
107.909441,-6.37,-40.289,9.6
107.920221,-5.04,-44.839,7.589
107.931001,-3.57,-48.947,5.088
107.941781,-2.17,-54.122,2.185
107.952524,-2.31,-60.14,-0.369
107.963267,-3.71,-66.782,-2.606
107.97401,-3.78,-75.748,-4.969
107.984753,-2.87,-85.099,-6.76
107.995496,-2.8,-93.83,-8.442
108.006239,-2.66,-101.295,-11.251
108.016982,-2.24,-107.528,-14.198
108.027725,-1.89,-112.362,-16.614
108.038468,-1.4,-115.854,-18.58
108.049211,-1.75,-118.968,-19.058
108.059954,-3.22,-121.709,-18.831
108.070697,-5.53,-123.611,-18.526
108.08144,-7.91,-124.815,-17.743
108.092163,-10.57,-124.596,-17.776
108.102886,-12.18,-122.954,-18.624
108.113609,-14,-120.12,-18.977
108.124332,-15.26,-116.081,-18.904
108.135055,-16.1,-112.322,-18.455
108.145778,-17.08,-109.475,-16.46
108.156501,-16.31,-108.959,-12.531
108.167224,-17.08,-108.752,-10.078
108.177947,-17.5,-108.371,-6.599
108.18867,-16.03,-108.569,-2.653
108.199393,-14.56,-108.759,0.441
108.210116,-14,-109.193,1.288
108.220834,-13.3,-109.249,1.207
108.231552,-11.69,-108.889,0.773
108.24227,-10.71,-109.197,0.506
108.252988,-13.02,-109.452,0.745
108.263706,-13.86,-110.247,0.818
108.274424,-15.61,-110.896,0.064
108.285142,-15.54,-110.434,-1.347
108.29586,-15.89,-108.577,-4.218
108.306578,-15.54,-106.797,-5.042
108.317296,-11.41,-106.022,-1.778
108.328014,-4.13,-103.249,-4.203
108.338732,-3.22,-96.47,-11.608
108.349421,-0.07,-89.147,-12.023
108.36011,3.85,-83.563,-11.038
108.370799,3.71,-79.592,-7.353
108.381488,0.21,-76.182,-2.913
108.392177,-3.92,-73.873,2.541
108.402866,-6.93,-70.459,6.555
108.413555,-9.73,-66.574,5.889
108.424244,-13.3,-61.964,3.93
108.434933,-15.47,-57.435,2.027
108.445622,-17.43,-53.518,0.372
108.456311,-18.41,-50.274,-0.69
108.467,-19.11,-47.833,-0.829
108.477689,-18.34,-44.208,-2.038
108.488377,-18.13,-39.415,-3.822
108.499065,-17.15,-35.024,-4.541
108.509753,-16.24,-30.689,-2.923
108.520441,-15.12,-26.552,-0.986
108.531129,-13.79,-23.061,0.98
108.541817,-12.6,-20.116,2.424
108.552505,-11.48,-17.412,2.403
108.563193,-9.31,-14.525,1.348
108.573881,-8.4,-11.703,-0.144
108.584569,-8.33,-9.124,-1.467
108.595257,-9.52,-7.324,-2.002
108.605945,-10.5,-6.087,-2.566
108.616633,-12.04,-5.738,-2.931
108.627321,-13.02,-6.164,-2.935
108.637986,-12.74,-6.367,-2.189
108.648651,-12.25,-6.586,-2.156
108.659316,-12.39,-6.014,-2.98
108.669981,-11.97,-4.834,-3.624
108.680646,-12.46,-3.046,-4.091
108.691311,-12.67,-1.748,-3.791
108.701976,-11.34,-0.268,-3.317
108.712641,-9.1,1.455,-3.013
108.723306,-7,3.905,-2.794
108.733971,-6.02,6.755,-2.434
108.744636,-5.6,9.999,-1.08
108.755299,-4.83,13.089,-0.464
108.765962,-3.57,15.839,-0.335
108.776625,-3.15,18.787,0.683
108.787288,-2.87,21.459,1.651
108.797951,-3.78,23.211,2.6
108.808614,-3.99,25.823,3.914
108.819277,-4.69,27.583,4.011
108.82994,-5.11,29.087,3.139
108.840603,-5.74,30.895,2.96
108.851266,-4.34,32.246,3.767
108.861929,-3.92,33.762,4.034
108.872592,-5.6,34.801,4.999
108.88322,-7.56,35.636,6.71
108.893848,-9.17,35.503,8.677
108.904476,-12.11,35.008,11.077
108.915104,-13.44,34.623,14.066
108.925732,-11.06,34.907,14.471
108.93636,-9.24,36.756,11.243
108.946988,-8.96,39.176,8.401
108.957616,-7.42,40.547,5.87
108.968244,-8.82,41.357,4.094
108.978872,-10.92,40.084,6.073
108.9895,-10.78,37.737,6.085
109.000128,-10.01,35.076,5.048
109.010756,-7.28,32.339,3.641
109.021353,-5.11,29.662,0.681
109.03195,-2.24,27.541,-1.399
109.042547,0,26.037,-2.943
109.053144,1.19,24.715,-3.106
109.063741,1.54,22.01,-1.876
109.074338,0.49,18.839,-0.019
109.084935,-1.47,16.123,1.279
109.095532,-3.92,13.219,1.62
109.106129,-7.21,11.853,1.308
109.116726,-11.34,10.486,-0.212
109.127323,-16.17,9.16,-2.365
109.13792,-20.37,8.142,-4.251
109.148517,-23.1,6.905,-6.104
109.159114,-24.92,5.964,-8.829
109.169704,-25.62,5.136,-11.391
109.180294,-25.62,4.929,-12.636
109.190884,-23.52,5.071,-14.246
109.201474,-20.58,4.912,-15.766
109.212064,-17.99,5.683,-16.91
109.222654,-15.82,5.468,-16.095
109.233244,-15.82,4.689,-15.308
109.243834,-16.73,2.877,-14.704
109.254424,-15.12,0.785,-12.514
109.265014,-13.51,-2.483,-10.105
109.275604,-11.83,-5.84,-6.787
109.286212,-8.54,-8.999,-3.79
109.29682,-4.13,-10.811,-1.977
109.307428,0.21,-11.893,-0.676
109.318036,2.94,-12.201,0.265
109.328644,5.32,-12.943,0.845
109.339252,6.16,-14.059,0.72
109.34986,7.7,-14.805,-0.691
109.360468,8.19,-16.233,-3.075
109.371076,7.56,-18.621,-4.847
109.381684,7.07,-20.649,-5.844
109.392292,8.33,-21.667,-6.521
109.4029,9.66,-21.553,-6.359
109.413488,13.23,-22.53,-5.252
109.424076,18.55,-22.936,-4.968
109.434664,24.01,-22.336,-5.147
109.445252,26.95,-20.454,-5.739
109.45584,27.72,-18.706,-5.573
109.466428,25.62,-17.871,-3.862
109.477016,22.26,-17.887,-2.159
109.487604,16.03,-17.789,-0.294
109.498192,11.62,-17.051,1.969
109.50878,7.63,-15.433,1.259
109.519368,4.27,-13.925,-1.247
109.529956,1.4,-11.504,-2.881
109.540544,0.49,-10.162,-3.64
109.551168,0.21,-10.122,-4.273
109.561792,-0.35,-10.657,-3.656
109.572416,-0.77,-11.666,-1.56
109.58304,-0.91,-13.268,1.072
109.593664,-1.61,-14.8,4.925
109.604288,-2.52,-17.622,8.834
109.614912,-3.29,-20.168,12.792
109.625536,-3.01,-21.757,15.355
109.63616,-2.45,-22.669,16.9
109.646784,-2.31,-23.691,17.857
109.657408,-1.68,-23.735,17.707
109.668032,-1.12,-24.49,17.148
109.678655,-0.35,-25.552,17.529
109.689278,-0.49,-26.931,18.495
109.699901,-1.26,-29.051,18.831
109.710524,-1.61,-30.004,18.592
109.721147,-0.91,-29.51,17.4
109.73177,0.35,-28.5,15.303
109.742393,1.12,-27.037,12.647
109.753016,1.61,-26.044,9.837
109.763639,1.96,-24.88,7.27
109.774262,1.68,-23.567,4.658
109.784885,0.84,-23.239,2.797
109.795508,-0.42,-22.89,1.224
109.806131,-1.54,-22.688,0.478
109.816779,-3.29,-22.635,-0.224
109.827427,-4.83,-22.347,-0.244
109.838075,-6.3,-22.023,-0.471
109.848723,-7.28,-21.528,-0.455
109.859371,-8.4,-21.203,0.526
109.870019,-8.89,-21.248,1.584
109.880667,-8.33,-21.398,1.629
109.891315,-7.49,-21.337,1.284
109.901963,-6.02,-21.885,1.97
109.912611,-3.29,-22.935,2.282
109.923259,-1.96,-24.731,3.6
109.933907,0.7,-27.083,5.247
109.944549,4.55,-29.025,4.975
109.955191,6.44,-29.341,3.143
109.965833,5.88,-30.404,2.316
109.976475,4.97,-32.918,4.076
109.987117,3.36,-35.492,6.181
109.997759,0.7,-37.508,6.323
110.008401,-1.82,-39.037,6.124
110.019043,-1.26,-40.091,5.654
110.029685,-0.42,-40.306,2.844
110.040327,-0.14,-39.796,-0.051
110.050969,0.49,-40.047,-1.446
110.061611,0.49,-41.665,-1.945
110.072253,0.77,-44.244,-1.831
110.082921,0.21,-47.464,-0.906
110.093589,-0.56,-50.16,0.68
110.104257,-1.89,-53.181,1.285
110.114925,-3.71,-56.328,1.796
110.125593,-5.39,-58.801,1.715
110.136261,-7.91,-61.109,1.095
110.146929,-9.73,-63.104,0.317
110.157597,-11.76,-65.111,-0.392
110.168265,-14,-66.615,-0.729
110.178933,-16.03,-67.783,-1.361
110.189601,-17.36,-68.919,-1.775
110.200269,-19.04,-70.099,-1.13
110.210933,-20.16,-69.795,-0.436
110.221597,-20.86,-69.312,-0.351
110.232261,-21.42,-69.235,1.226
110.242925,-21.7,-67.604,2.864
110.253589,-21.98,-66.688,4.518
110.264253,-22.96,-66.525,6.822
110.274917,-23.52,-67.161,9.624
110.285581,-24.5,-68.11,11.376
110.296245,-24.15,-69.947,13.326
110.306909,-22.68,-72.177,15.492
110.317573,-20.37,-74.164,16.279
110.328237,-17.64,-75.267,14.876
110.338901,-14.56,-75.92,13.339
110.349608,-12.04,-75.92,12.131
110.360315,-9.45,-75.677,10.752
110.371022,-7.7,-75.523,10.282
110.381729,-6.23,-75.648,10.189
110.392436,-5.04,-75.353,8.108
110.403143,-4.34,-75.248,6.705
110.41385,-2.94,-75.766,8.035
110.424557,5.25,-77.68,12.034
110.435264,13.02,-78.909,6.913
110.445971,14.21,-78.346,3.316
110.456678,17.5,-78.252,6.815
110.467385,18.97,-79.428,8.243
110.478087,13.37,-80.79,9.922
110.488789,7.21,-83.215,13.19
110.499491,2.1,-86.28,14.853
110.510193,-2.73,-87.614,13.552
110.520895,-6.93,-88.004,10.924
110.531597,-9.1,-87.793,8.118
110.542299,-10.08,-87.672,5.012
110.553001,-10.15,-87.612,2.251
110.563703,-11.55,-89.214,2.466
110.574405,-13.16,-90.969,4.36
110.585107,-14.07,-91.849,7.332
110.595809,-15.05,-91.69,11.269
110.606511,-15.89,-90.436,15.044
110.617238,-15.89,-87.042,17.562
110.627965,-17.01,-81.945,18.887
110.638692,-17.57,-75.696,18.923
110.649419,-17.92,-69.573,17.657
110.660146,-18.48,-63.783,16.261
110.670873,-18.9,-59.306,15.06
110.6816,-19.67,-55.977,13.515
110.692327,-20.93,-52.811,12.083
110.703054,-21.84,-50.211,11.049
110.713781,-22.82,-48.245,9.974
110.724508,-24.08,-46.473,8.794
110.735235,-24.5,-45.237,7.021
110.745979,-24.01,-43.181,5.038
110.756723,-23.52,-41.101,2.917
110.767467,-22.96,-38.636,0.224
110.778211,-22.54,-35.725,-2.177
110.788955,-22.12,-33.219,-4.294
110.799699,-20.72,-30.811,-5.859
110.810443,-19.74,-28.564,-7.311
110.821187,-19.25,-26.918,-8.585
110.831931,-20.02,-25.572,-8.561
110.842675,-21.35,-25.199,-6.647
110.853419,-22.54,-25.239,-3.597
110.864163,-22.75,-25.741,-1.554
110.874907,-23.59,-26.268,0.628
110.885651,-21.91,-26.252,2.55
110.896407,-18.76,-26.097,3.288
110.907163,-15.33,-26.689,3.824
110.917919,-8.12,-27.577,5.231
110.928675,-1.4,-28.534,4.209
110.939431,2.17,-28.774,2.745
110.950187,5.88,-28.936,2.859
110.960943,7.91,-29.897,3.471
110.971699,7.98,-31.089,4.185
110.982455,5.88,-32.022,5.442
110.993211,4.06,-33.201,6.087
111.003967,3.71,-33.136,6.525
111.014749,2.66,-33.112,5.179
111.025531,2.1,-32.679,4.331
111.036313,2.59,-32.078,4.153
111.047095,3.64,-32.638,4.907
111.057877,3.99,-34.308,6.318
111.068659,3.22,-36.328,8.095
111.079441,2.59,-37.272,9.421
111.090223,1.05,-37.256,8.926
111.101005,-1.82,-36.543,7.701
111.111787,-5.18,-35.894,6.039
111.122569,-8.12,-35.339,4.502
111.133351,-10.85,-35.14,2.973
111.144133,-12.32,-35.477,0.852
111.154915,-13.51,-35.469,-1.208
111.165697,-13.58,-35.534,-4.062
111.176479,-13.02,-35.486,-6.755
111.187261,-12.67,-35.568,-9.115
111.198043,-12.95,-35.726,-10.635
111.208825,-13.65,-36.326,-11.665
111.219607,-15.26,-37.016,-11.787
111.230389,-17.71,-38.163,-10.923
111.241171,-20.02,-39.716,-9.775
111.251953,-22.05,-40.965,-7.934
111.262735,-23.31,-41.504,-6.892
111.273517,-23.66,-41.378,-6.799
111.284316,-23.31,-40.425,-6.559
111.295115,-21.42,-39.561,-6.62
111.305914,-19.46,-39.042,-6.742
111.316713,-18.27,-39.095,-6.041
111.327512,-17.85,-39.168,-4.419
111.338311,-16.31,-39.67,-2.375
111.34911,-14.91,-39.492,-0.566
111.359909,-13.79,-39.094,1.21
111.370708,-12.39,-38.161,2.369
111.381507,-11.13,-37.042,3.278
111.392306,-10.01,-36.073,4.23
111.403105,-8.54,-36.551,4.928
111.41388,-5.81,-36.977,4.924
111.424655,-2.31,-37.987,3.395
111.43543,1.61,-38.96,2.868
111.446205,7.35,-40.112,2.95
111.45698,11.2,-40.769,1.839
111.467755,11.76,-41.101,1.709
111.47853,10.64,-40.469,1.749
111.489305,7.56,-40.201,2.649
111.50008,4.48,-41.421,6.344
111.510855,2.38,-42.819,10.646
111.52163,-1.61,-43.707,12.053
111.532405,-4.69,-42.787,12.074
111.54318,-5.6,-40.504,10.415
111.553961,-5.81,-37.763,6.562
111.564742,-9.94,-34.378,2.681
111.575523,-13.51,-30.935,1.298
111.586304,-15.54,-28.592,1.711
111.597085,-18.41,-26.994,1.922
111.607866,-20.23,-26.483,2.652
111.618647,-18.97,-25.153,1.962
111.629428,-18.55,-23.645,0.664
111.640209,-16.66,-22.063,-1.047
111.65099,-12.04,-19.846,-4.352
111.661771,-6.65,-18.025,-7.017
111.672552,-1.75,-16.732,-7.499
111.683297,2.03,-16.793,-7.155
111.694042,3.99,-16.801,-5.095
111.704787,3.92,-17.141,-1.956
111.715532,3.78,-17.067,1.255
111.726277,2.24,-16.43,3.287
111.737022,-0.21,-15.157,4.933
111.747767,-1.75,-13.985,6.348
111.758512,-4.34,-12.821,7.406
111.769257,-7.49,-11.503,7.994
111.780002,-10.01,-10.25,8.144
111.790747,-12.32,-8.835,8.18
111.801492,-13.93,-8.409,8.184
111.812237,-15.54,-7.951,8.407
111.822966,-16.31,-8.243,8.853
111.833695,-17.01,-8.275,8.634
111.844424,-16.03,-8.287,7.495
111.855153,-15.54,-8.251,6.08
111.865882,-15.26,-7.53,4.003
111.876611,-14.07,-5.75,0.763
111.88734,-14.35,-4.096,-2.57
111.898069,-12.53,-2.207,-6.431
111.908798,-10.57,-0.707,-9.294
111.919527,-8.89,0.177,-10.275
111.930256,-8.54,0.299,-10.965
111.940985,-9.94,0.104,-9.862
111.951682,-8.26,-0.796,-7.177
111.962379,-6.51,-1.339,-6.918
111.973076,-7.14,-1.728,-4.712
111.983773,-6.02,-2.105,-0.158
111.99447,-2.03,-2.534,2.681
112.005167,2.8,-3.868,5.004
112.015864,6.58,-4.265,5.645
112.026561,10.36,-4.152,5.807
112.037258,14.35,-4.675,3.938
112.047955,15.05,-6.046,2.843
112.058652,15.19,-8.061,2.986
112.069349,15.96,-10.713,3.513
112.080046,14.42,-13.62,3.072
112.090723,13.16,-15.83,3.108
112.1014,11.2,-17.006,2.119
112.112077,8.4,-17.234,0.586
112.122754,4.97,-17.185,-0.898
112.133431,1.47,-17.303,-1.843
112.144108,-1.96,-17.003,-3.14
112.154785,-4.48,-16.476,-4.114
112.165462,-5.32,-15.86,-4.787
112.176139,-6.86,-15.722,-5.971
112.186816,-7.42,-15.418,-7.694
112.197493,-8.19,-15.001,-9.255
112.20817,-9.03,-14.612,-10.253
112.218812,-8.4,-14.283,-10.906
112.229454,-7,-14.068,-11.721
112.240096,-5.74,-13.63,-11.786
112.250738,-3.64,-13.493,-11.762
112.26138,-1.89,-13.184,-11.494
112.272022,-1.75,-12.758,-10.282
112.282664,-1.68,-11.647,-9.73
112.293306,-2.87,-10.958,-9.609
112.303948,-5.11,-10.017,-9.301
112.31459,-7.49,-9.226,-7.74
112.325232,-10.22,-9.039,-5.574
112.335874,-12.53,-9.582,-2.898
112.346516,-13.09,-10.79,-0.481
112.357158,-15.61,-11.942,0.809
112.3678,-17.99,-12.87,1.64
112.378442,-18.34,-13.588,2.082
112.389084,-17.99,-14.764,2.301
112.399726,-18.13,-15.976,2.727
112.410368,-18.34,-18.182,3.547
112.42101,-18.06,-20.347,4.942
112.431652,-17.85,-21.754,5.262
112.442294,-18.83,-22.318,5.234
112.452936,-20.02,-22.975,5.331
112.463578,-20.23,-23.234,5.997
112.47422,-18.41,-23.1,6.447
112.484873,-17.22,-23.178,4.869
112.495526,-17.29,-23.802,5.186
112.506179,-14.77,-24.451,6.848
112.516832,-9.8,-24.949,9.675
112.527485,-2.45,-25.679,8.977
112.538138,-0.28,-26.287,7.591
112.548791,0.56,-26.421,9.557
112.559444,0.77,-25.46,7.736
112.570097,-2.45,-23.462,3.255
112.58075,-7.91,-21.8,-0.93
112.591403,-10.01,-19.542,-4.867
112.602056,-11.41,-17.572,-8.785
112.612699,-9.38,-15.999,-12.061
112.623342,-6.16,-13.635,-16.194
112.633985,-4.76,-11.271,-17.909
112.644628,-2.1,-9.155,-19.029
112.655271,0.77,-6.941,-19.491
112.665914,3.36,-5.635,-17.626
112.676557,5.04,-5.334,-14.09
112.6872,6.16,-5.119,-8.863
112.697843,7,-5.304,-3.779
112.708486,8.33,-5.859,1.384
112.719129,10.01,-6.337,5.706
112.729772,12.04,-6.543,9.295
112.740415,14.77,-6.109,12.073
112.751038,17.78,-5.444,13.54
112.761661,20.37,-4.572,13.836
112.772284,21.98,-3.729,13.487
112.782907,22.89,-3.384,13.548
112.79353,22.33,-3.279,13.354
112.804153,20.23,-3.137,12.952
112.814776,17.92,-3.676,11.578
112.825399,15.54,-4.297,10.26
112.836022,13.23,-5.672,8.382
112.846645,12.81,-6.852,6.611
112.857268,12.74,-6.792,3.849
112.867891,12.67,-6.532,0.767
112.878514,12.32,-6.245,-1.67
112.889132,12.53,-5.811,-3.726
112.89975,12.39,-4.648,-5.084
112.910368,11.9,-3.74,-6.204
112.920986,10.36,-2.714,-6.378
112.931604,7.35,-2.43,-5.973
112.942222,3.43,-2.535,-5.778
112.95284,-1.4,-2.336,-4.89
112.963458,-5.11,-1.651,-4.343
112.974076,-8.26,-0.455,-4.274
112.984694,-10.22,0.474,-3.897
112.995312,-10.01,1.634,-2.413
113.00593,-6.93,2.94,-1.756
113.016544,-5.18,4.042,-2.77
113.027158,-5.81,4.987,-1.679
113.037772,-4.9,5.778,-0.118
113.048386,-0.63,6.861,0.997
113.059,1.89,7.94,0.121
113.069614,4.9,8.929,-2.264
113.080228,5.81,9.371,-3.963
113.090842,5.53,9.76,-4.961
113.101456,5.11,9.679,-4.904
113.11207,6.58,9.099,-3.229
113.122684,8.75,7.866,-1.883
113.133298,10.15,6.301,-0.666
113.143912,13.09,4.023,1.776
113.154543,18.06,1.72,4.355
113.165174,21.91,0.175,5.859
113.175805,24.64,-1.24,5.823
113.186436,27.65,-1.934,4.919
113.197067,29.26,-2.209,3.662
113.207698,29.61,-2.412,1.991
113.218329,28.49,-2.587,-0.243
113.22896,27.51,-2.49,-3.211
113.239591,25.41,-3.322,-5.348
113.250222,23.94,-4.429,-7.534
113.260853,23.03,-5.48,-9.638
113.271484,23.17,-5.865,-11.483
113.282143,23.45,-6.433,-13.502
113.292802,23.31,-6.498,-15.149
113.303461,22.96,-6.279,-16.389
113.31412,21.7,-5.724,-16.718
113.324779,19.18,-4.666,-16.673
113.335438,16.03,-3.498,-16.041
113.346097,13.58,-2.399,-15.421
113.356756,10.5,-0.789,-14.071
113.367415,7.28,0.047,-12.36
113.378074,4.48,0.826,-10.73
113.388733,2.17,0.708,-9.258
113.399392,-1.33,0.737,-8.613
113.410046,-5.74,0.449,-7.384
113.4207,-7.35,-0.341,-5.32
113.431354,-7.21,-1.079,-3.958
113.442008,-5.81,-2.81,-2.201
113.452662,-4.27,-4.067,-0.717
113.463316,-3.57,-5.936,1.015
113.47397,-2.17,-7.226,2.28
113.484624,-1.82,-8.178,3.249
113.495278,-1.61,-9.261,3.343
113.505932,-0.91,-9.979,2.576
113.516586,-0.56,-9.991,1.437
113.52724,-0.14,-10.523,0.419
113.537894,0.91,-11.334,0.987
113.548584,5.39,-13.324,3.408
113.559274,10.36,-16.106,5.476
113.569964,15.33,-18.599,7.525
113.580654,17.78,-20.748,9.633
113.591344,17.78,-22.208,10.656
113.602034,15.82,-21.62,10.546
113.612724,9.87,-19.702,8.538
113.623414,1.05,-17.691,6.405
113.634104,-7.21,-15.996,3.648
113.644794,-12.81,-13.576,0.805
113.655484,-16.66,-10.543,-2.286
113.666174,-19.11,-8.532,-4.419
113.676863,-18.48,-6.387,-6.102
113.687552,-19.81,-4.644,-6.718
113.698241,-20.79,-4.031,-5.758
113.70893,-20.93,-3.139,-3.965
113.719619,-20.51,-3.042,-2.1
113.730308,-19.81,-3.284,0.487
113.740997,-20.93,-3.446,3.017
113.751686,-24.22,-3.251,5.54
113.762375,-27.23,-2.525,6.663
113.773064,-30.52,-1.986,6.829
113.783753,-32.83,-1.779,6.865
113.794442,-33.18,-1.641,6.89
113.805131,-32.2,-1.313,6.237
113.815845,-31.92,-1.256,6.318
113.826559,-31.29,-1.329,5.523
113.837273,-30.94,-1.11,4.282
113.847987,-30.66,-0.932,2.466
113.858701,-31.22,-1.07,1.233
113.869415,-32.34,-0.904,0.694
113.880129,-33.04,-1.115,1.083
113.890843,-33.04,-0.62,1.099
113.901557,-31.85,-0.369,1.285
113.912271,-30.45,-0.235,0.527
113.922985,-29.26,-0.138,-0.024
113.933699,-28.42,0.284,0.405
113.944438,-26.74,0.466,0.58
113.955177,-25.06,0.681,-0.235
113.965916,-24.29,2.047,-2.34
113.976655,-24.85,4.245,-4.725
113.987394,-24.78,5.81,-5.941
113.998133,-25.9,7.671,-6.822
114.008872,-26.67,8.604,-6.87
114.019611,-27.79,9.751,-6.526
114.03035,-27.23,10.599,-6.092
114.041089,-27.58,10.858,-5.549
114.051828,-26.18,11.832,-5.022
114.062567,-23.66,13.028,-4.953
114.073306,-16.52,14.253,-5.448
114.084045,-7.35,16.142,-8.1
114.094819,-1.75,17.999,-9.763
114.105593,1.96,18.53,-7.537
114.116367,4.55,17.549,-6.004
114.127141,4.48,15.194,-2.723
114.137915,3.08,11.934,1.251
114.148689,2.8,8.589,5.708
114.159463,3.64,5.784,7.915
114.170237,2.59,3.898,7.724
114.181011,1.75,2.836,8.106
114.191785,0.84,3.606,6.962
114.202559,-3.08,5.199,3.973
114.213333,-6.79,7.538,1.187
114.224137,-8.47,9.857,-1.887
114.234941,-10.29,11.037,-3.74
114.245745,-13.02,9.508,-3.939
114.256549,-15.19,7.676,-3.622
114.267353,-16.59,6.021,-3.914
114.278157,-17.85,3.759,-3.176
114.288961,-20.02,1.845,-2.802
114.299765,-21.35,0.624,-2.733
114.310569,-22.89,0.316,-4.209
114.321373,-24.22,0.482,-4.748
114.332177,-25.97,1.054,-4.363
114.342981,-27.86,1.617,-4.335
114.353776,-29.68,2.343,-4.42
114.364571,-30.8,3.029,-3.873
114.375366,-32.48,4.03,-3.91
114.386161,-32.83,4.699,-4.076
114.396956,-32.13,5.242,-4.336
114.407751,-31.01,6.155,-4.672
114.418546,-29.82,6.548,-4.887
114.429341,-28.07,6.804,-5.126
114.440136,-25.9,6.613,-5.658
114.450931,-22.54,6.576,-6.659
114.461726,-20.02,5.891,-7.207
114.472521,-17.85,4.273,-6.497
114.483316,-17.15,2.351,-5.272
114.494128,-16.87,0.279,-4.002
114.50494,-17.08,-1.343,-2.867
114.515752,-18.76,-3.289,-1.504
114.526564,-20.86,-4.975,0.402
114.537376,-22.89,-5.835,1.246
114.548188,-25.13,-6.573,1.4
114.559,-27.44,-6.792,1.432
114.569812,-28.42,-6.816,1.57
114.580624,-30.17,-6.18,1.185
114.591436,-31.99,-5.855,0.958
114.602248,-32.62,-5.863,0.601
114.61306,-31.57,-6.46,0.354
114.623872,-30.1,-7.429,0.609
114.634684,-27.44,-8.394,0.439
114.645494,-20.58,-8.102,-0.007
114.656304,-14.14,-7.579,-2.971
114.667114,-7.84,-6.983,-2.724
114.677924,1.33,-5.758,-0.802
114.688734,11.2,-4.392,-2.907
114.699544,17.64,-4.291,-2.676
114.710354,21.21,-3.986,-0.774
114.721164,20.44,-2.749,-0.129
114.731974,15.47,-0.633,-2.457
114.742784,11.34,2.331,-5.56
114.753552,9.45,4.881,-9.944
114.76432,9.94,7.094,-15.24
114.775088,11.83,7.986,-17.073
114.785856,14.07,7.568,-16.72
114.796624,15.82,5.079,-12.681
114.807392,15.68,1.678,-7.096
114.81816,13.86,-1.78,-1.593
114.828928,11.34,-5.097,3.508
114.839696,7.42,-7.801,7.154
114.850464,3.15,-10.083,10.021
114.861232,-1.33,-10.635,11.132
114.872,-6.51,-10.59,11.282
114.882768,-10.36,-10.034,12.162
114.893497,-13.09,-9.223,11.595
114.904226,-14.49,-7.748,10.078
114.914955,-15.4,-6.029,8.391
114.925684,-15.05,-4.387,6.335
114.936413,-14.07,-2.943,4.599
114.947142,-12.6,-1.978,3.561
114.957871,-11.76,-1.237,1.772
114.9686,-12.11,-0.231,0.101
114.979329,-12.32,0.491,-0.766
114.990058,-12.95,1.273,-1.979
115.000787,-14.56,1.467,-3.082
115.011516,-16.52,1.11,-4.282
115.022232,-17.5,0.624,-5.15
115.032948,-18.41,0.644,-6.07
115.043664,-19.74,0.421,-6.821
115.05438,-19.46,-0.094,-7.125
115.065096,-18.97,-0.155,-7.988
115.075812,-18.2,-0.074,-8.045
115.086528,-18.13,-0.277,-7.299
115.097244,-18.55,0.015,-7.745
115.10796,-20.44,0.599,-7.429
115.118676,-23.17,0.603,-5.438
115.129392,-24.5,0.474,-1.48
115.140108,-19.81,0.876,-0.13
115.150801,-15.4,1.455,-4.221
115.161494,-11.34,0.62,-4.724
115.172187,-6.93,0.681,-2.652
115.18288,-1.12,2.627,-4.015
115.193573,4.48,5.056,-6.501
115.204266,8.82,6.609,-5.232
115.214959,9.52,4.598,-1.89
115.225652,6.86,1.107,3.394
115.236345,6.58,-1.195,8.39
115.247038,9.03,-1.945,12.238
115.257731,11.06,-2.804,15.499
115.268424,11.83,-4.41,16.139
115.279117,13.51,-5.131,17.007
115.28981,13.79,-4.864,16.699
115.300503,12.46,-4.414,15.357
115.311196,9.1,-3.498,13.386
115.321889,4.41,-2.942,10.641
115.332582,-1.4,-3.186,8.394
115.343275,-7.91,-4.281,7.348
115.353968,-14.98,-5.425,6.578
115.364661,-22.54,-7.485,5.362
115.375354,-28.91,-8.937,4.324
115.386047,-33.04,-10.141,3.898
115.39674,-36.54,-10.676,3.306
115.407433,-38.22,-11.106,2.52
115.418083,-38.78,-10.368,1.157
115.428733,-38.71,-9.906,0.954
115.439383,-37.59,-9.355,-0.157
115.450033,-36.89,-7.522,-1.682
115.460683,-35.28,-6.115,-3.211
115.471333,-32.9,-4.895,-3.28
115.481983,-30.03,-3.751,-3.718
115.492633,-28.7,-3.249,-3.345
115.503283,-26.67,-3.658,-2.635
115.513933,-24.78,-4.234,-1.386
115.524583,-23.66,-5.158,0.228
115.535233,-23.66,-5.66,2.272
115.545883,-24.08,-6.159,3.89
115.55654,-25.48,-6.191,3.671
115.567197,-27.86,-6.232,3.095
115.577854,-28.84,-5.989,2.924
115.588511,-29.47,-5.928,2.58
115.599168,-29.61,-6.889,3.192
115.609825,-28.49,-8.483,3.764
115.620482,-23.38,-9.8,3.176
115.631139,-17.43,-10.608,-0.307
115.641796,-13.37,-11.541,-1.466
115.652453,-4.9,-12.202,-0.943
115.66311,1.61,-11.318,-4.341
115.673767,3.71,-11.018,-4.431
115.6844,7.14,-10.049,-4.686
115.695033,10.71,-8.707,-7.861
115.705666,9.24,-6.757,-9.65
115.716299,5.74,-4.815,-10.587
115.726932,2.17,-1.932,-13.633
115.737565,-0.07,1.17,-16.711
115.748198,-0.49,3.108,-18.43
115.758831,0.35,4.904,-18.54
115.769464,2.66,5.715,-17.9
115.780097,4.41,6.559,-17.04
115.79073,5.88,6.705,-15.45
115.801363,5.95,6.669,-11.618
115.811996,3.57,6.13,-6.951
115.822613,1.26,4.947,-2.255
115.83323,-1.4,3.476,3.669
115.843847,-5.39,1.765,9.338
115.854464,-9.73,-0.051,15.202
115.865081,-14,-1.311,18.321
115.875698,-17.99,-1.485,20.92
115.886315,-21.56,-0.78,21.755
115.896932,-24.5,1.544,19.464
115.907549,-27.51,3.785,14.812
115.918166,-28.91,6.181,9.691
115.928783,-27.3,8.873,3.697
115.9394,-24.92,10.454,-1.64
115.949998,-22.4,9.995,-5.488
115.960596,-21.28,8.19,-6.943
115.971194,-22.19,4.926,-4.96
115.981792,-24.78,1.529,-1.01
115.99239,-31.36,-0.588,1.318
116.002988,-41.37,-0.503,0.835
116.013586,-51.38,1.269,-2.762
116.024184,-57.54,3.219,-5.759
116.034782,-58.24,4.54,-8.013
116.04538,-55.86,5.12,-9.688
116.055978,-51.52,4.642,-10.199
116.066576,-45.92,4.763,-10.888
116.077174,-42.35,4.552,-11.707
116.087783,-39.55,5.185,-12.875
116.098392,-38.43,6.96,-15.69
116.109001,-33.46,8.914,-17.904
116.11961,-28.14,10.945,-22.166
116.130219,-22.54,11.116,-21.923
116.140828,-17.64,10.139,-18.399
116.151437,-17.85,6.811,-12.02
116.162046,-22.19,1.666,-0.986
116.172655,-20.79,-3.462,9.554
116.183264,-10.71,-7.577,15.155
116.193873,1.47,-8.809,15.293
116.204482,11.41,-8.59,16.469
116.215115,19.04,-8.477,16.631
116.225748,25.83,-9.312,18.545
116.236381,31.22,-12.162,21.809
116.247014,34.16,-15.231,23.898
116.257647,34.23,-16.789,23.055
116.26828,32.34,-14.117,16.773
116.278913,29.4,-9.021,8.432
116.289546,27.02,-3.017,0.179
116.300179,23.66,0.741,-6.622
116.310812,19.04,2.683,-11.184
116.321445,13.02,3.141,-13.378
116.332078,6.72,1.523,-12.668
116.342746,0.42,-1.915,-9.294
116.353414,-5.95,-6.294,-5.019
116.364082,-10.92,-10.381,-1.191
116.37475,-14.21,-13.085,2.455
116.385418,-15.61,-14.873,5.338
116.396086,-14.98,-15.692,5.549
116.406754,-13.51,-14.893,5.051
116.417422,-12.67,-13.462,3.384
116.42809,-11.9,-11.848,1.891
116.438758,-11.69,-10.827,-0.274
116.449426,-11.83,-9.392,-2.367
116.460094,-11.34,-8.265,-3.519
116.470762,-10.99,-7.547,-3.961
116.481465,-10.08,-7.263,-4.764
116.492168,-9.73,-6.866,-4.196
116.502871,-10.43,-6.164,-4.143
116.513574,-11.55,-6.355,-3.466
116.524277,-13.93,-6.501,-2.639
116.53498,-15.68,-6.476,-1.568
116.545683,-16.8,-7.181,0.013
116.556386,-17.85,-8.43,1.854
116.567089,-17.57,-10.157,4.393
116.577792,-17.08,-11.609,4.563
116.588495,-16.38,-12.829,4.633
116.599198,-13.79,-14.074,7.256
116.609896,-12.32,-14.252,6.656
116.620594,-15.19,-14.751,4.649
116.631292,-14.91,-14.111,5.046
116.64199,-11.97,-11.39,2.114
116.652688,-8.33,-8.001,-4.609
116.663386,-4.55,-3.715,-7.55
116.674084,-2.38,0.043,-9.517
116.684782,-3.36,2.131,-11.281
116.69548,-2.8,2.804,-11.873
116.706178,0.07,2.667,-10.689
116.716876,3.29,1.523,-9.043
116.727574,7.28,0.413,-5.969
116.738272,10.78,-0.67,-3.459
116.748954,13.65,-1.805,-1.455
116.759636,16.03,-2.623,1.172
116.770318,17.08,-3.633,4.477
116.781,16.31,-4.816,7.965
116.791682,15.05,-5.894,12.466
116.802364,12.81,-7.532,16.513
116.813046,10.78,-8.342,19.498
116.823728,8.47,-9.319,23.021
116.83441,6.02,-10.576,25.714
116.845092,2.45,-11.334,26.789
116.855774,-1.54,-12.279,26.907
116.866456,-4.9,-13.26,26.023
116.877138,-8.61,-13.901,24.417
116.887828,-12.6,-13.946,21.85
116.898518,-15.05,-14.145,18.545
116.909208,-16.59,-14.231,14.194
116.919898,-16.38,-14.232,10.569
116.930588,-16.59,-14.269,7.151
116.941278,-14.77,-13.851,3.173
116.951968,-12.88,-12.721,-0.821
116.962658,-11.97,-11.756,-4.276
116.973348,-10.22,-10.86,-6.535
116.984038,-9.24,-10.26,-7.922
116.994728,-8.96,-10.277,-8.636
117.005418,-9.24,-10.496,-8.603
117.016121,-9.87,-10.422,-7.808
117.026824,-11.13,-10.601,-7.2
117.037527,-12.88,-10.925,-5.765
117.04823,-13.79,-11.342,-4.203
117.058933,-13.79,-11.399,-3.076
117.069636,-13.51,-11.521,-2.387
117.080339,-13.09,-11.451,-1.166
117.091042,-8.89,-10.227,-1.661
117.101745,-2.31,-8.804,-6.102
117.112448,5.53,-7.438,-5.789
117.123151,13.3,-6.558,-5.137
117.133854,17.08,-6.391,-5.676
117.144555,16.94,-6.225,-5.007
117.155256,14.56,-5.438,-4.229
117.165957,10.43,-5.081,-4.237
117.176658,8.33,-5.377,-2.157
117.187359,7.91,-4.963,-0.875
117.19806,10.15,-3.386,-0.952
117.208761,11.83,-1.622,-2.49
117.219462,13.16,-0.361,-3.191
117.230163,15.19,0.085,-1.691
117.240864,16.8,0.142,-1.61
117.251565,17.92,-0.434,-0.361
117.262266,18.06,-1.188,0.288
117.272967,17.08,-1.314,1.403
117.283688,13.51,-1.123,1.934
117.294409,9.1,-0.948,2.96
117.30513,3.36,-1.484,3.577
117.315851,-2.38,-2.42,4.051
117.326572,-7.77,-3.645,4.546
117.337293,-11.83,-4.967,4.384
117.348014,-14.14,-6.585,3.886
117.358735,-15.61,-7.363,3.464
117.369456,-16.38,-8.588,2.75
117.380177,-15.47,-8.925,1.838
117.390898,-15.68,-9.918,1.023
117.401619,-17.08,-10.543,1.34
117.412371,-17.08,-10.559,0.626
117.423123,-18.41,-10.442,0.362
117.433875,-19.6,-10.352,-0.546
117.444627,-20.51,-9.842,-1.025
117.455379,-21.42,-10.357,-1.329
117.466131,-20.37,-10.336,-2.249
117.476883,-20.16,-10.965,-1.507
117.487635,-18.62,-11.038,-1.093
117.498387,-16.66,-9.765,-1.864
117.509139,-15.12,-8.147,-2.574
117.519891,-14.35,-6.565,-3.077
117.530643,-15.12,-5.973,-2.404
117.541415,-14.14,-5.941,-0.976
117.552187,-9.17,-6.229,-0.956
117.562959,-5.95,-6.971,-1.585
117.573731,-0.35,-7.173,-0.838
117.584503,5.39,-5.864,-3.024
117.595275,7.98,-3.687,-5.697
117.606047,9.45,-1.299,-7.55
117.616819,9.59,1.073,-10.117
117.627591,8.4,3.23,-11.869
117.638363,7.07,6.425,-13.865
117.649135,4.69,8.862,-15.994
117.659907,2.17,11.416,-17.179
117.670679,0.21,13.022,-17.819
117.681433,0.56,13.363,-17.333
117.692187,2.59,12.491,-15.212
117.702941,5.39,11.397,-12.633
117.713695,8.4,10.773,-9.9
117.724449,11.13,9.613,-7.759
117.735203,12.18,8.19,-5.735
117.745957,10.64,7.526,-3.578
117.756711,5.88,6.123,-1.266
117.767465,-1.54,4.27,1.179
117.778219,-10.92,2.251,4.164
117.788973,-21.35,0.836,7.753
117.799727,-30.8,-0.708,11.674
117.810481,-38.78,-1.3,14.627
117.821219,-43.54,-1.79,16.601
117.831957,-45.22,-2.078,17.83
117.842695,-45.78,-2.512,17.469
117.853433,-45.5,-3.278,16.979
117.864171,-43.61,-3.222,15.851
117.874909,-40.95,-2.808,13.508
117.885647,-37.24,-2.2,10.061
117.896385,-33.6,-1.256,7.526
117.907123,-30.8,-0.336,5.13
117.917861,-28.98,0.329,2.972
117.928599,-27.37,1.119,0.908
117.939337,-25.97,2.088,-0.556
117.950075,-26.11,2.692,-1.16
117.960795,-26.18,3.102,-1.87
117.971515,-27.23,3.418,-2.454
117.982235,-23.87,3.207,-0.856
117.992955,-16.31,3.463,-2.304
118.003675,-8.54,4.062,-4.899
118.014395,2.45,5.855,-4.583
118.025115,13.86,7.821,-6.866
118.035835,21.77,9.167,-8.05
118.046555,23.8,9.342,-5.816
118.057275,23.87,8.345,-3.789
118.067995,21.14,5.628,-2.491
118.078715,18.2,2.478,2.072
118.089421,14.84,0.666,5.093
118.100127,11.27,0.256,5.803
118.110833,9.1,0.106,4.639
118.121539,7,0.447,3.917
118.132245,5.46,0.714,3.609
118.142951,5.32,1.136,2.83
118.153657,4.76,1.501,1.971
118.164363,4.13,2.445,0.644
118.175069,2.87,3.479,-0.382
118.185775,1.05,4.29,-0.949
118.196481,-1.47,3.962,-0.297
118.207187,-5.88,3.419,1.171
118.217903,-10.5,3.054,2.031
118.228619,-15.05,2.535,2.153
118.239335,-21.56,1.631,2.846
118.250051,-23.38,1.48,2.891
118.260767,-24.43,1.428,2.384
118.271483,-24.71,1.18,1.772
118.282199,-24.5,1.452,1.038
118.292915,-25.13,0.977,1.31
118.303631,-26.04,0.167,1.877
118.314347,-27.09,-0.714,1.225
118.325063,-26.53,-1.431,0.458
118.335779,-24.5,-2.19,0.325
118.346535,-21.07,-2.903,0.341
118.357291,-17.71,-3.179,0.292
118.368047,-14.63,-3.767,0.402
118.378803,-11.69,-4.209,0.893
118.389559,-9.17,-4.521,1.051
118.400315,-7.56,-4.939,1.404
118.411071,-7.7,-5.312,1.907
118.421827,-7.56,-5.612,3.204
118.432583,-4.9,-5.571,3.78
118.443339,-1.05,-5.709,3.756
118.454095,5.46,-6.054,3.695
118.464851,12.53,-6.447,2.702
118.47566,17.01,-7.226,1.072
118.486469,21.56,-6.216,1.392
118.497278,25.06,-5.036,-0.462
118.508087,20.51,-4.29,-1.467
118.518896,14.21,-3.629,0.426
118.529705,7.91,-2.765,0.365
118.540514,2.8,-2.319,0.657
118.551323,0.35,-0.868,-1.93
118.562132,-0.07,1.082,-4.927
118.572941,1.75,3.502,-8.978
118.58375,4.2,6.133,-13.419
118.594559,6.23,7.897,-16.164
118.60537,8.33,8.979,-17.466
118.616181,9.52,9.052,-17.88
118.626992,10.5,8.359,-17.575
118.637803,9.87,6.445,-15.994
118.648614,8.61,3.644,-11.796
118.659425,6.44,0.887,-7.449
118.670236,3.71,-1.606,-4.193
118.681047,0.28,-3.548,-0.839
118.691858,-5.39,-5.539,2.791
118.702669,-10.01,-6.783,5.414
118.71348,-13.93,-7.862,7.499
118.724291,-17.64,-8.506,8.736
118.735102,-20.37,-8.117,8.946
118.745913,-22.68,-7.756,8.513
118.756722,-25.06,-6.848,7.393
118.767531,-28.42,-6.049,5.686
118.77834,-31.5,-5.06,4.51
118.789149,-32.83,-4.205,2.884
118.799958,-32.41,-3.747,0.69
118.810767,-31.5,-3.325,-1.297
118.821576,-30.45,-3.427,-2.737
118.832385,-28.35,-2.989,-2.802
118.843194,-26.6,-1.574,-5.182
118.854003,-24.57,-0.082,-7.194
118.864812,-24.36,1.215,-8.102
118.875621,-25.83,2.602,-7.502
118.886438,-28.56,3.097,-6.278
118.897255,-27.93,3.183,-3.135
118.908072,-19.81,3.929,-2.932
118.918889,-12.11,4.229,-5.438
118.929706,-3.36,4.862,-2.981
118.940523,5.11,5.778,-2.535
118.95134,6.79,6.617,-2.458
118.962157,3.15,5.32,0.867
118.972974,3.08,3.962,4.537
118.983791,2.24,2.081,3.921
118.994608,-1.33,-1.033,9.485
119.005425,-2.87,-3.011,13.045
119.016242,-2.52,-3.928,12.599
119.027059,-0.07,-5.481,12.539
119.037876,4.55,-7.135,13.455
119.048693,7.07,-9.548,13.03
119.05951,9.31,-12.07,9.6
119.070327,10.99,-14.232,5.736
119.081144,11.83,-17.525,2.241
119.091961,10.85,-21.26,-0.763
119.102778,6.3,-26.305,-3.999
119.113595,-1.96,-32.992,-5.178
119.124412,-11.76,-40.916,-4.585
119.135229,-21.63,-48.559,-4.369
119.146046,-31.85,-56.393,-3.475
119.156861,-39.97,-64.179,-1.65
119.167676,-46.76,-70.269,-1.373
119.178491,-51.87,-74.458,-1.401
119.189306,-56.07,-77.491,-0.727
119.200121,-61.04,-78.476,-1.185
119.210936,-65.45,-78.476,0.023
119.221751,-66.64,-77.47,1.977
119.232566,-65.87,-76.347,2.46
119.243381,-63.84,-74.498,2.857
119.254196,-61.32,-72.154,3.27
119.265011,-54.95,-69.709,1.498
119.275826,-45.29,-66.891,0.431
119.286642,-34.09,-63.594,2.292
119.297458,-28.98,-60.885,4.262
119.308274,-27.86,-58.67,8.633
119.31909,-29.47,-56.586,10.92
119.329906,-30.94,-54.505,12.424
119.340722,-31.43,-51.874,12.817
119.351538,-28.56,-50.134,12.626
119.362354,-25.9,-49.895,12.882
119.37317,-19.18,-50.71,10.25
119.383986,-13.44,-51.935,7.12
119.394802,-5.6,-52.158,8.786
119.405618,1.05,-51.027,8.417
119.416443,2.52,-48.833,7.667
119.427268,0.14,-46.133,8.072
119.438093,-2.38,-43.983,7.171
119.448918,-4.9,-42.289,6.83
119.459743,-6.72,-40.05,5.022
119.470568,-9.17,-37.74,0.382
119.481393,-9.59,-35.04,-5.254
119.492218,-9.17,-31.598,-10.263
119.503043,-7.35,-30.021,-15.174
119.513868,-7.07,-28.286,-19.772
119.524693,-9.24,-27.18,-21.212
119.535518,-11.48,-26.478,-19.951
119.546326,-14.21,-25.999,-18.232
119.557134,-15.82,-26.21,-15.426
119.567942,-17.71,-26.748,-11.967
119.57875,-19.46,-27.847,-7.753
119.589558,-21.63,-29.715,-3.605
119.600366,-24.01,-31.341,0.373
119.611174,-25.55,-32.362,3.747
119.621982,-26.67,-33.676,6.359
119.63279,-28.63,-34.515,8.699
119.643598,-29.68,-35.557,10.576
119.654406,-31.22,-36.222,11.525
119.665214,-32.2,-36.943,12.393
119.676022,-33.6,-37.065,11.874
119.686778,-34.51,-37.175,11.286
119.697534,-35.63,-37.832,10.175
119.70829,-36.89,-39.198,8.655
119.719046,-36.54,-41.194,6.668
119.729802,-35.84,-43.38,4.15
119.740558,-34.58,-44.386,0.987
119.751314,-33.53,-44.342,-2.488
119.76207,-32.13,-43.539,-5.829
119.772826,-32.2,-42.283,-8.522
119.783582,-33.6,-40.036,-9.974
119.794338,-35.42,-36.914,-10.347
119.805094,-38.36,-33.488,-10.027
119.81585,-40.81,-29.773,-8.519
119.82656,-42.7,-27.745,-5.105
119.83727,-40.67,-27.797,-1.987
119.84798,-35.42,-27.043,-3.844
119.85869,-28.28,-24.522,-7.665
119.8694,-19.39,-20.946,-11.014
119.88011,-13.72,-17.386,-15.078
119.89082,-12.81,-15.707,-13.716
119.90153,-10.99,-17.093,-5.857
119.91224,-5.95,-17.526,-1.384
119.92295,-3.64,-16.017,0.943
119.93366,-1.26,-13.571,4.004
119.94437,1.26,-10.088,4.405
119.95504,3.92,-6.094,4.328
119.96571,8.05,-2.659,5.004
119.97638,12.11,0.106,4.639
119.98705,17.43,5,0.668
119.99772,21.77,10.871,-4.409
120.00839,24.5,17.131,-9.276
120.01906,26.6,24.154,-14.435
120.02973,28.07,30.836,-18.872
120.0404,29.54,37.708,-21.57
120.05107,30.73,43.722,-22.215
120.06174,31.92,48.985,-21.429
120.07241,33.18,53.637,-17.979
120.08308,33.53,56.707,-12.818
120.093726,31.99,60.435,-7.753
120.104372,29.12,64.267,-4.092
120.115018,25.41,67.515,-1.956
120.125664,21.21,69.88,-0.046
120.13631,17.15,70.512,1.203
120.146956,14,71.08,3.222
120.157602,12.39,70.651,4.852
120.168248,12.39,70.578,5.266
120.178894,11.97,71.579,4.021
120.18954,11.34,72.95,1.49
120.200186,9.45,73.578,-1.669
120.210832,7.21,73.062,-4.39
120.221464,4.97,70.978,-5.468
120.232096,2.94,68.273,-5.447
120.242728,0.42,64.883,-3.557
120.25336,-0.21,60.78,-0.442
120.263992,2.38,56.073,3.277
120.274624,3.36,52.261,4.737
120.285256,2.73,48.665,5.382
120.295888,4.34,45.814,6.23
120.30652,5.18,44.155,3.947
120.317152,3.08,42.634,1.689
120.327784,1.75,41.527,1.92
120.338416,3.15,40.27,0.988
120.349037,4.34,39.532,-1.275
120.359658,4.27,40.233,-3.639
120.370279,3.22,41.846,-7.548
120.3809,3.64,44.056,-12.418
120.391521,4.41,45.795,-16.234
120.402142,4.83,46.691,-18.493
120.412763,5.53,46.861,-19.458
120.423384,6.44,45.876,-18.708
120.434005,8.96,44.882,-17.106
120.444626,11.9,42.867,-15.756
120.455247,13.86,41.793,-14.097
120.465868,15.4,40.706,-12.369
120.476489,16.24,39.437,-10.816
120.487121,15.68,38.679,-8.533
120.497753,13.72,37.569,-5.459
120.508385,10.43,36.231,-2.71
120.519017,6.72,34.901,-0.812
120.529649,3.85,33.206,0.737
120.540281,1.05,31.414,1.63
120.550913,-0.98,29.626,2.096
120.561545,-3.5,27.347,2.121
120.572177,-6.02,25.66,2.819
120.582809,-7.28,24.675,2.361
120.593441,-8.54,24.302,0.447
120.604073,-9.52,23.681,-2.079
120.614705,-9.52,23.222,-4.719
120.625337,-8.47,23.084,-7.16
120.635958,-5.95,22.24,-9.228
120.646579,-2.31,21.733,-11.592
120.6572,0.42,20.8,-12.752
120.667821,2.24,19.069,-10.996
120.678442,2.66,17.674,-9.536
120.689063,0.77,16.62,-7.589
120.699684,-3.92,16.203,-4.82
120.710305,-7.21,16.082,-1.713
120.720926,-3.64,17.136,-0.035
120.731547,0.35,17.789,-3.332
120.742168,4.55,17.014,-1.762
120.752806,12.53,16.524,0.213
120.763444,17.43,16.135,-1.207
120.774082,20.51,14.728,-0.886
120.78472,23.8,12.745,0.684
120.795358,24.64,9.591,3.255
120.805996,25.34,5.929,7.087
120.816634,28,2.179,9.411
120.827272,31.36,-1.434,12.968
120.83791,35.77,-4.487,14.562
120.848548,40.46,-6.997,14.688
120.859186,43.47,-8.084,12.791
120.869824,44.24,-7.707,9.445
120.880449,43.61,-6.791,6.266
120.891074,41.37,-6.033,3.983
120.901699,38.57,-6.123,3.683
120.912324,33.18,-6.313,4.36
120.922949,27.44,-6.755,6.059
120.933574,22.75,-7.245,8.034
120.944199,19.04,-7.448,8.78
120.954824,15.68,-7.233,10.382
120.965449,13.79,-7.362,11.923
120.976074,12.95,-6.494,12.644
120.986699,11.62,-5.858,12.259
120.997324,10.22,-5.578,11.882
121.007949,6.79,-6.057,8.954
121.018571,1.82,-7.095,7.989
121.029193,-2.31,-9.147,8.338
121.039815,-4.55,-11.251,8.18
121.050437,-7.56,-13.62,7.905
121.061059,-11.62,-15.574,7.703
121.071681,-14.84,-17.148,7.354
121.082303,-16.73,-17.78,7.314
121.092925,-17.57,-18.68,7.581
121.103547,-17.29,-18.774,7.707
121.114169,-17.85,-17.419,6.88
121.124791,-18.06,-15.501,6.081
121.135413,-18.34,-12.955,4.539
121.146053,-19.46,-11.005,3.959
121.156693,-19.95,-10.64,5.516
121.167333,-20.23,-10.923,7.528
121.177973,-19.04,-11.276,7.11
121.188613,-14,-11.527,8.132
121.199253,-9.03,-10.513,8.026
121.209893,-9.1,-9.281,7.888
121.220533,-9.94,-7.225,8.322
121.231173,-10.92,-4.07,5.751
121.241813,-12.32,-1.107,2.648
121.252453,-13.37,1.508,-0.089
121.263093,-13.23,5.242,-5.544
121.273763,-12.6,9.317,-11.72
121.284433,-11.06,12.921,-15.634
121.295103,-8.47,15.236,-17.074
121.305773,-6.51,16.445,-17.074
121.316443,-4.48,16.323,-15.176
121.327113,-1.47,15.728,-11.798
121.337783,-0.49,14.804,-8.976
121.348453,0.14,13.855,-6.015
121.359123,-0.7,12.29,-2.382
121.369793,-1.68,10.26,3.088
121.380463,-4.9,7.973,8.798
121.391133,-8.68,6.733,13.413
121.401796,-16.31,6.299,14.261
121.412459,-23.31,6.222,15.1
121.423122,-27.65,6.908,14.439
121.433785,-31.64,6.818,12.93
121.444448,-35.14,7.803,9.763
121.455111,-36.96,9.149,4.954
121.465774,-36.54,10.531,-0.062
121.476437,-34.37,12.521,-6.109
121.4871,-32.2,14.702,-11.624
121.497763,-30.17,16.611,-15.196
121.508426,-27.72,18.265,-17.321
121.519089,-25.97,18.869,-17.926
121.529752,-25.9,19.072,-18.672
121.540414,-27.93,18.695,-18.952
121.551076,-29.68,16.866,-16.644
121.561738,-31.15,13.842,-13.197
121.5724,-30.1,10.116,-8.594
121.583062,-28.35,6.755,-2.434
121.593724,-29.19,3.994,-3.703
121.604386,-30.03,2.294,-6.561
121.615048,-23.87,2.092,-5.815
121.62571,-17.92,2.558,-7.652
121.636372,-17.01,2.971,-7.579
121.647034,-16.66,3.872,-5.43
121.657696,-15.05,4.501,-3.756
121.668377,-9.52,5.571,-3.78
121.679058,-6.65,5.762,-2.04
121.689739,-3.78,6.046,0.782
121.70042,1.75,6.748,2.043
121.711101,9.38,7.056,3.519
121.721782,18.62,6.477,5.194
121.732463,26.95,6.768,4.747
121.743144,32.34,6.967,4.427
121.753825,32.13,7.141,4.245
121.764506,26.46,6.509,5.413
121.775187,17.29,5.333,6.84
121.785868,7.63,4.543,7.696
121.796544,-1.47,2.694,8.507
121.80722,-9.45,0.966,9.837
121.817896,-16.24,-0.104,11.07
121.828572,-22.05,-0.781,10.88
121.839248,-25.27,-1.791,10.559
121.849924,-26.95,-2.111,9.152
121.8606,-29.19,-2.728,7.409
121.871276,-30.45,-3.324,5.953
121.881952,-31.92,-3.977,4.416
121.892628,-34.72,-4.428,2.134
121.903304,-37.66,-4.959,1.116
121.91398,-39.76,-5.316,-0.084
121.924656,-41.09,-5.584,-0.985
121.935334,-42.28,-6.038,-0.425
121.946012,-42.63,-5.215,0.147
121.95669,-42.77,-3.597,0.645
121.967368,-42.7,-1.739,1.399
121.978046,-42.21,0,2.417
121.988724,-42.14,2.324,3.751
121.999402,-42.63,3.662,4.626
122.01008,-43.4,4.429,5.117
122.020758,-44.52,5.252,5.688
122.031436,-44.24,4.985,7.205
122.042114,-42.49,4.304,8.649
122.052792,-38.22,3.946,6.24
122.063507,-32.2,3.018,4.655
122.074222,-21.63,2.88,5.839
122.084937,-13.23,3.524,3.394
122.095652,-10.64,3.516,3.037
122.106367,-9.31,3.784,2.728
122.117082,-8.54,4.866,-0.99
122.127797,-2.94,6.39,-5.199
122.138512,3.99,9.256,-8.959
122.149227,9.03,11.563,-13.172
122.159942,13.3,13.071,-16.887
122.170657,16.94,14.011,-20.204
122.181372,18.97,14.121,-20.824
122.192094,18.83,13.289,-20.544
122.202816,17.78,11.651,-18.914
122.213538,16.73,10.22,-16.039
122.22426,15.75,9.369,-13.63
122.234982,15.26,7.91,-11.4
122.245704,14.91,6.539,-8.869
122.256426,15.82,5.096,-5.925
122.267148,16.17,3.39,-0.682
122.27787,15.19,1.505,3.962
122.288592,11.69,0.212,6.861
122.299314,6.58,-1.268,10.012
122.310036,0.42,-2.516,13.061
122.320758,-3.64,-2.873,14.278
122.331499,-7.98,-2.532,13.556
122.34224,-11.76,-1.754,12.769
122.352981,-13.58,-1.852,9.696
122.363722,-14.77,-1.86,8.131
122.374463,-16.94,-1.795,7.36
122.385204,-20.02,-1.775,5.231
122.395945,-22.68,-1.281,1.622
122.406686,-26.6,-1.014,-2.311
122.417427,-32.97,-0.585,-5.15
122.428168,-38.92,-0.824,-7.822
122.438909,-42.56,-0.792,-8.811
122.44965,-41.44,-0.853,-8.467
122.460381,-38.5,-0.707,-8.086
122.471112,-36.47,0.36,-7.684
122.481843,-32.97,0.712,-9.683
122.492574,-29.54,0.931,-10.924
122.503305,-28.14,0.704,-10.04
122.514036,-28.98,0.084,-8.941
122.524767,-24.15,-0.086,-7.976
122.535498,-13.93,0.935,-10.142
122.546229,-4.97,1.929,-9.327
122.55696,6.58,3.117,-5.99
122.567691,16.17,4.788,-6.193
122.578422,21.07,7.189,-5.698
122.589153,21.07,8.819,-4.06
122.59991,17.29,8.268,-1.741
122.610667,11.9,6.813,1.272
122.621424,8.61,4.587,4.221
122.632181,7.91,2.381,6.248
122.642938,6.86,1.4,7.781
122.653695,3.71,0.252,7.437
122.664452,1.75,-0.344,7.19
122.675209,0.77,-0.648,6.496
122.685966,0.7,-1.025,5.008
122.696723,2.66,-1.082,2.51
122.70748,6.16,-1.224,1.703
122.718237,9.66,-0.843,0.349
122.728975,12.88,-0.738,-1.054
122.739713,13.79,-1.476,-2.108
122.750451,13.3,-3.033,-0.535
122.761189,10.29,-4.764,2.43
122.771927,4.48,-6.536,3.61
122.782665,-1.12,-8,5.058
122.793403,-5.32,-9.601,6.481
122.804141,-9.03,-11.471,7.005
122.814879,-13.93,-13.271,6.332
122.825617,-16.73,-15.157,4.933
122.836355,-19.6,-15.915,3.591
122.847093,-23.45,-16.333,2.735
122.857831,-26.32,-16.362,0.882
122.868574,-28.21,-15.871,0.116
122.879317,-30.59,-15.105,0.606
122.89006,-31.99,-13.41,1.474
122.900803,-30.45,-11.496,2.309
122.911546,-29.26,-10.182,3.322
122.922289,-28.35,-8.641,4.66
122.933032,-28.14,-7.497,5.431
122.943775,-25.55,-8.612,8.93
122.954518,-14,-8.47,8.529
122.965261,-6.44,-9.728,2.763
122.976004,3.15,-9.954,8.48
122.986747,18.06,-9.05,6.578
122.997478,32.97,-9.018,0.755
123.008209,43.75,-8.762,2.933
123.01894,46.69,-6.407,2.069
123.029671,41.16,-3.845,-3.592
123.040402,35.77,-1.299,-8.759
123.051133,33.6,0.29,-13.738
123.061864,35.7,1.757,-19.237
123.072595,38.85,3.062,-22.206
123.083326,40.74,3.504,-22.696
123.094057,42.49,3.533,-23.26
123.104788,45.22,3.529,-22.834
123.115519,47.53,3.618,-21.326
123.12625,47.53,3.744,-18.816
123.136987,45.57,2.93,-14.197
123.147724,40.53,2.93,-9.363
123.158461,33.53,2.481,-5.604
123.169198,25.41,1.902,-0.304
123.179935,17.78,0.962,5.429
123.190672,10.43,0.476,9.395
123.201409,3.5,-0.724,12.169
123.212146,-3.15,-1.831,14.817
