Time,AccelerometerX,AccelerometerY,AccelerometerZ
168.000298,1.255,-8.796,0.64
168.00999,1.059,-8.319,0.644
168.019682,0.902,-8.049,0.692
168.029374,0.745,-7.887,0.681
168.039066,0.549,-7.726,0.669
168.048758,0.392,-7.712,0.592
168.05845,0.314,-7.712,0.592
168.068142,0.235,-7.789,0.578
168.077834,0.275,-7.867,0.565
168.087526,0.275,-7.969,0.467
168.097244,0.275,-8.053,0.492
168.106962,0.314,-8.078,0.408
168.11668,0.314,-8.078,0.408
168.126398,0.314,-8.11,0.362
168.136116,0.314,-8.149,0.356
168.145834,0.314,-8.226,0.342
168.155552,0.314,-8.303,0.328
168.16527,0.353,-8.548,0.365
168.174988,0.353,-8.833,0.394
168.184706,0.314,-9.155,0.417
168.194424,0.275,-9.407,0.492
168.204142,0.196,-9.839,0.456
168.21386,0.118,-10.38,0.36
168.223599,0.039,-10.575,0.565
168.233338,0,-10.832,0.44
168.243077,-0.118,-11.316,0.474
168.252816,-0.235,-11.53,0.556
168.262555,-0.314,-11.518,0.717
168.272294,-0.392,-11.321,0.951
168.282033,-0.549,-11.527,0.995
168.291772,-0.628,-12.223,0.872
168.301511,-0.706,-12.714,0.945
168.31125,-0.706,-12.639,1.197
168.320989,-0.628,-12.645,1.236
168.330728,-0.628,-12.782,1.331
168.340467,-0.549,-12.873,1.395
168.350206,-0.471,-13.175,1.302
168.359948,-0.588,-13.42,1.338
168.36969,-0.588,-13.518,1.44
168.379432,-0.628,-13.088,1.715
168.389174,-0.628,-12.329,1.929
168.398916,-0.628,-11.243,2.319
168.408658,-0.628,-10.489,2.333
168.4184,-0.628,-10.482,2.294
168.428142,-0.667,-9.871,2.442
168.437884,-0.549,-10.041,2.053
168.447626,-0.628,-10.009,2.099
168.457368,-0.549,-9.764,2.062
168.46711,-0.549,-9.544,1.942
168.476852,-0.549,-9.653,1.883
168.486594,-0.51,-9.937,1.912
168.496321,-0.51,-9.859,1.926
168.506048,-0.549,-9.718,2.031
168.515775,-0.471,-9.557,2.019
168.525502,-0.431,-9.462,2.155
168.535229,-0.392,-9.339,2.137
168.544956,-0.392,-9.139,2.133
168.554683,-0.353,-8.894,2.096
168.56441,-0.314,-8.61,2.067
168.574137,-0.235,-8.326,2.037
168.583864,-0.196,-8.189,1.942
168.593591,-0.196,-8.053,1.846
168.603318,-0.157,-7.917,1.751
168.613045,-0.157,-7.896,1.635
168.622772,-0.196,-7.869,1.48
168.63248,-0.078,-7.848,1.364
168.642188,-0.118,-7.892,1.158
168.651896,-0.078,-7.91,1.035
168.661604,-0.118,-7.921,0.874
168.671312,-0.078,-7.953,0.828
168.68102,0,-7.869,0.803
168.690728,0.039,-7.855,0.726
168.700436,0.078,-8.137,0.517
168.710144,0.039,-8.337,0.522
168.719852,0.078,-8.478,0.417
168.72956,0.118,-8.658,0.306
168.739268,0.078,-8.998,0.206
168.748976,0,-9.371,0.06
168.758684,-0.078,-9.712,-0.04
168.768398,-0.078,-10.194,-0.244
168.778112,-0.157,-10.721,-0.417
168.787826,-0.157,-11.012,-0.348
168.79754,-0.078,-11.025,-0.271
168.807254,0,-11.482,-0.392
168.816968,0.039,-12.082,-0.378
168.826682,0.157,-12.418,-0.278
168.836396,0.353,-12.568,-0.105
168.84611,0.471,-12.686,0.113
168.855824,0.588,-13.223,0.218
168.865538,0.549,-13.702,0.452
168.875252,0.588,-14.038,0.552
168.884966,0.588,-13.957,0.765
168.894685,0.549,-13.327,1.036
168.904404,0.745,-12.729,1.261
168.914123,0.863,-11.97,1.474
168.923842,1.059,-11.539,1.51
168.933561,1.177,-11.043,1.638
168.94328,1.373,-10.687,1.422
168.952999,1.53,-10.543,1.288
168.962718,1.608,-10.446,1.185
168.972437,1.648,-10.309,1.09
168.982156,1.608,-10.134,1.001
168.991875,1.608,-10.205,0.949
169.001594,1.491,-10.128,0.963
169.011313,1.412,-9.773,0.985
169.021032,1.334,-9.541,1.026
169.030742,1.255,-9.321,0.906
169.040452,1.098,-9.082,0.908
169.050162,1.059,-8.921,0.897
169.059872,0.981,-8.882,0.903
169.069582,0.981,-8.817,0.756
169.079292,1.059,-8.771,0.724
169.089002,1.02,-8.694,0.737
169.098712,0.902,-8.487,0.694
169.108422,0.785,-8.248,0.696
169.118132,0.706,-7.996,0.621
169.127842,0.588,-7.705,0.553
169.137552,0.51,-7.467,0.555
169.147262,0.431,-7.312,0.583
169.156972,0.353,-7.274,0.59
169.166695,0.314,-7.203,0.642
169.176418,0.235,-7.19,0.565
169.186141,0.157,-7.555,0.381
169.195864,0.039,-7.769,0.462
169.205587,0.039,-7.755,0.385
169.21531,0,-7.928,0.235
169.225033,-0.039,-8.424,0.108
169.234756,0.039,-9.183,-0.106
169.244479,0.039,-9.871,-0.267
169.254202,0.078,-10.341,-0.31
169.263925,0.118,-10.85,-0.36
169.273648,0.157,-11.366,-0.371
169.283371,0.039,-11.696,-0.31
169.293092,0,-12.428,-0.678
169.302813,-0.235,-13.098,-0.716
169.312534,-0.51,-13.446,-0.778
169.322255,-0.51,-13.818,-0.923
169.331976,-0.667,-14.468,-1.077
169.341697,-0.863,-14.977,-1.127
169.351418,-0.981,-14.498,-0.684
169.361139,-0.941,-13.155,-0.169
169.37086,-0.863,-12.209,0.118
169.380581,-0.981,-11.478,0.486
169.390302,-1.138,-10.773,1.008
169.400023,-1.294,-10.45,0.985
169.409744,-1.412,-10.703,1.06
169.419465,-1.451,-10.959,0.935
169.429184,-1.491,-11.005,0.967
169.438903,-1.569,-10.503,1.056
169.448622,-1.451,-10.141,1.04
169.458341,-1.451,-10.103,1.047
169.46806,-1.451,-10.128,0.963
169.477779,-1.373,-9.973,0.99
169.487498,-1.255,-9.573,0.981
169.497217,-1.098,-9.321,0.906
169.506936,-0.981,-9.121,0.901
169.516655,-0.785,-8.96,0.89
169.526374,-0.628,-8.869,0.826
169.536093,-0.549,-8.662,0.783
169.545812,-0.471,-8.321,0.883
169.555531,-0.471,-7.967,0.905
169.565224,-0.431,-7.703,0.992
169.574917,-0.471,-7.464,0.994
169.58461,-0.51,-7.303,0.983
169.594303,-0.588,-7.212,0.919
169.603996,-0.667,-7.205,0.88
169.613689,-0.785,-7.044,0.869
169.623382,-0.824,-6.896,0.935
169.633075,-0.902,-6.742,0.962
169.642768,-0.902,-6.549,0.996
169.652461,-0.902,-6.376,1.146
169.662154,-0.902,-6.119,1.271
169.671847,-0.863,-5.951,1.221
169.68154,-0.824,-6.099,1.155
169.691233,-0.785,-6.426,0.978
169.700935,-0.706,-6.574,0.912
169.710637,-0.628,-6.658,0.937
169.720339,-0.51,-6.935,0.928
169.730041,-0.51,-7.271,1.028
169.739743,-0.471,-7.403,1.324
169.749445,-0.275,-7.399,1.523
169.759147,-0.196,-7.401,1.762
169.768849,0.039,-7.78,1.655
169.778551,0.196,-8.669,1.499
169.788253,0.392,-10.064,1.053
169.797955,0.588,-11.932,0.804
169.807657,0.667,-13.486,0.809
169.817359,0.745,-14.854,0.886
169.827063,0.706,-15.554,1.241
169.836767,0.392,-15.161,1.947
169.846471,0.353,-13.947,2.52
169.856175,0.314,-12.468,2.94
169.865879,0.392,-11.766,3.024
169.875583,0.549,-11.895,3.081
169.885287,0.667,-12,3.222
169.894991,0.824,-11.802,3.456
169.904695,0.941,-11.257,3.751
169.914399,1.059,-10.782,3.994
169.924103,1.138,-10.416,4.178
169.933807,1.255,-9.952,4.26
169.943511,1.334,-9.616,4.16
169.953215,1.294,-9.241,4.066
169.962898,1.412,-8.789,3.987
169.972581,1.451,-8.498,3.919
169.982264,1.53,-8.534,3.673
169.991947,1.412,-9.037,3.585
170.00163,1.373,-9.271,3.782
170.011313,1.491,-9.196,4.035
170.020996,1.569,-8.927,4.321
170.030679,1.569,-8.589,4.659
170.040362,1.608,-8.3,4.83
170.050045,1.569,-8.134,5.018
170.059728,1.53,-8.168,5.212
170.069411,1.373,-8.241,5.398
170.079094,1.255,-8.236,5.598
170.088777,1.138,-8.239,5.837
170.098462,1.059,-8.066,5.986
170.108147,1.02,-7.971,6.123
170.117832,0.941,-8.036,6.27
170.127517,0.824,-8.043,6.309
170.137202,0.785,-8.011,6.355
170.146887,0.745,-7.864,6.42
170.156572,0.745,-7.716,6.486
170.166257,0.706,-7.614,6.584
170.175942,0.667,-7.441,6.734
170.185627,0.667,-7.307,6.877
170.195312,0.628,-7.05,7.002
170.204997,0.667,-6.793,7.127
170.214682,0.745,-6.659,7.27
170.224346,0.706,-6.659,7.27
170.23401,0.745,-6.943,7.3
170.243674,0.706,-7.273,7.361
170.253338,0.706,-7.609,7.461
170.263002,0.745,-7.854,7.498
170.272666,0.706,-8.023,7.548
170.28233,0.667,-8.079,7.418
170.291994,0.628,-8.059,7.302
170.301658,0.588,-8.193,7.159
170.311322,0.353,-8.277,7.184
170.320986,0.353,-8.129,7.25
170.33065,0.275,-7.923,7.207
170.340314,0.196,-7.639,7.177
170.349978,0.196,-7.439,7.173
170.359645,0.157,-7.2,7.175
170.369312,0.078,-6.968,7.216
170.378979,0.078,-6.8,7.166
170.388646,0.039,-6.677,7.147
170.398313,0,-6.593,7.122
170.40798,0,-6.562,7.168
170.417647,-0.039,-6.684,7.186
170.427314,-0.078,-6.814,7.243
170.436981,-0.196,-6.982,7.293
170.446648,-0.235,-7.098,7.272
170.456315,-0.275,-7.284,7.2
170.465982,-0.353,-7.341,7.07
170.475649,-0.392,-7.307,6.877
170.4853,-0.392,-7.325,6.754
170.494951,-0.353,-7.396,6.702
170.504602,-0.314,-7.427,6.657
170.514253,-0.235,-7.382,6.625
170.523904,-0.118,-7.375,6.586
170.533555,-0.039,-7.452,6.573
170.543206,0.078,-7.575,6.591
170.552857,0.078,-7.736,6.602
170.562508,0.157,-7.814,6.589
170.572159,0.157,-7.807,6.55
170.58181,0.118,-7.8,6.511
170.591461,0.118,-7.87,6.459
170.601112,0.039,-7.909,6.452
170.610763,0.039,-7.805,6.311
170.620419,-0.118,-7.591,6.23
170.630075,-0.196,-7.307,6.2
170.639731,-0.235,-7.009,6.093
170.649387,-0.275,-6.782,5.934
170.659043,-0.275,-6.562,5.814
170.668699,-0.235,-6.45,5.634
170.678355,-0.196,-6.385,5.486
170.688011,-0.118,-6.312,5.3
170.697667,-0.039,-6.214,5.198
170.707323,-0.039,-6.116,5.095
170.716979,-0.078,-6.141,5.011
170.726635,-0.078,-6.328,4.939
170.736291,-0.078,-6.56,4.898
170.74594,-0.118,-6.694,4.755
170.755589,-0.118,-6.957,4.668
170.765238,-0.039,-7.407,4.509
170.774887,-0.157,-7.987,4.407
170.784536,-0.235,-8.391,4.216
170.794185,-0.157,-8.916,3.805
170.803834,-0.275,-10.175,3.264
170.813483,-0.863,-10.854,3.503
170.823132,-1.059,-10.184,4.219
170.832781,-0.667,-9.457,4.387
170.84243,-0.51,-8.984,4.191
170.852079,-0.471,-9.139,4.164
170.861728,-0.588,-9.459,4.626
170.871377,-0.353,-9.25,5.021
170.881038,-0.157,-8.621,5.291
170.890699,0.157,-7.925,5.414
170.90036,0.392,-7.205,5.62
170.910021,0.902,-6.659,5.916
170.919682,1.53,-6.45,6.311
170.929343,2.118,-6.564,6.729
170.939004,2.511,-6.807,7.204
170.948665,2.942,-7.223,7.529
170.958326,3.138,-7.875,7.613
170.967987,3.138,-8.604,7.684
170.977648,3.099,-9.095,7.757
170.987309,2.942,-9.134,7.75
170.99697,2.746,-9.043,7.686
171.006631,2.511,-8.9,7.552
171.016313,2.197,-8.925,7.468
171.025995,1.844,-8.922,7.23
171.035677,1.569,-8.811,7.05
171.045359,1.373,-8.457,7.073
171.055041,1.294,-7.945,6.884
171.064723,1.177,-7.473,6.689
171.074405,1.098,-7.109,6.434
171.084087,1.02,-6.882,6.275
171.093769,0.941,-6.655,6.116
171.103451,0.863,-6.466,5.95
171.113133,0.785,-6.246,5.829
171.122815,0.745,-6.044,5.586
171.132497,0.706,-5.771,5.395
171.142189,0.667,-5.614,5.184
171.151881,0.549,-5.421,5.218
171.161573,0.431,-5.207,5.136
171.171265,0.314,-5.18,4.982
171.180957,0.196,-5.314,4.839
171.190649,0.118,-5.417,4.741
171.200341,0.039,-5.557,4.636
171.210033,-0.118,-5.589,4.591
171.219725,-0.118,-5.678,4.416
171.229417,-0.196,-5.882,4.221
171.239109,-0.353,-6.03,4.155
171.248801,-0.392,-6.151,3.934
171.258493,-0.353,-6.303,3.668
171.268185,-0.392,-6.532,3.389
171.277883,-0.431,-6.801,3.103
171.287581,-0.392,-6.832,3.057
171.297279,-0.392,-6.728,2.916
171.306977,-0.431,-6.746,2.794
171.316675,-0.51,-6.785,2.787
171.326373,-0.549,-6.855,2.735
171.336071,-0.51,-7.623,2.121
171.345769,-1.059,-9.669,1.522
171.355467,-1.765,-10.566,1.642
171.365165,-1.883,-10.843,1.633
171.374863,-1.922,-10.857,1.71
171.384561,-2.236,-11.073,2.031
171.394259,-2.275,-12,2.544
171.403957,-2.314,-12.781,3.363
171.413693,-2.197,-13.145,4.294
171.423429,-2.118,-12.868,4.98
171.433165,-2.04,-12.524,5.519
171.442901,-1.961,-12.929,6.005
171.452637,-1.883,-13.424,6.555
171.462373,-1.726,-14.156,6.864
171.472109,-1.412,-14.962,6.921
171.481845,-1.177,-15.478,6.91
171.491581,-0.902,-15.446,6.955
171.501317,-0.785,-14.833,6.865
171.511053,-0.745,-14.019,6.769
171.520789,-0.745,-13.21,6.473
171.530525,-0.902,-12.433,6.132
171.540261,-1.098,-11.636,5.676
171.550018,-1.255,-10.702,5.123
171.559775,-1.491,-9.807,4.564
171.569532,-1.569,-8.943,3.96
171.579289,-1.648,-8.157,3.341
171.589046,-1.608,-7.412,2.955
171.598803,-1.53,-6.712,2.6
171.60856,-1.412,-6.167,2.219
171.618317,-1.334,-5.751,1.894
171.628074,-1.294,-5.362,1.723
171.637831,-1.216,-4.897,1.566
171.647588,-1.098,-4.554,1.428
171.657345,-0.981,-4.256,1.321
171.667102,-0.941,-3.972,1.291
171.676875,-0.863,-3.617,1.314
171.686648,-0.785,-3.52,1.212
171.696421,-0.706,-3.77,1.048
171.706194,-0.667,-4.304,0.914
171.715967,-0.667,-4.813,0.864
171.72574,-0.628,-5.044,0.823
171.735513,-0.588,-5.199,0.796
171.745286,-0.628,-5.392,0.762
171.755059,-0.667,-5.831,0.764
171.764832,-0.745,-6.308,0.76
171.774605,-0.824,-6.715,0.808
171.784378,-0.824,-7.037,0.83
171.794151,-0.902,-7.437,0.84
171.803924,-1.059,-8.005,0.899
171.813677,-1.177,-8.553,0.842
171.82343,-1.334,-9.089,0.947
171.833183,-1.412,-9.439,1.124
171.842936,-1.491,-9.582,1.258
171.852689,-1.53,-9.687,1.399
171.862442,-1.53,-10.33,1.206
171.872195,-1.569,-11.907,0.888
171.881948,-1.883,-12.832,1.163
171.891701,-2.001,-12.952,1.62
171.901454,-1.687,-13.061,1.561
171.911207,-1.726,-13.577,1.549
171.92096,-1.608,-14.32,1.697
171.930713,-1.412,-15.022,1.613
171.940466,-1.138,-15.911,1.457
171.950236,-0.981,-16.402,1.529
171.960006,-0.824,-16.12,1.738
171.969776,-0.431,-15.308,1.881
171.979546,-0.118,-14.547,1.856
171.989316,0.118,-14.161,1.924
171.999086,0.314,-13.827,2.063
172.008856,0.51,-13.454,2.208
172.018626,0.706,-13.075,2.315
172.028396,0.824,-12.663,2.467
172.038166,0.981,-12.195,2.749
172.047936,1.138,-12.075,2.969
172.057706,1.177,-12.238,3.219
172.067476,1.177,-12.022,3.576
172.077255,1.098,-11.477,3.871
172.087034,1.059,-11.025,3.792
172.096813,0.941,-10.945,3.567
172.106592,0.667,-10.666,3.337
172.116371,0.471,-10.225,3.096
172.12615,0.353,-9.687,2.753
172.135929,0.196,-9.064,2.385
172.145708,0.118,-8.61,2.067
172.155487,0.039,-8.212,1.619
172.165266,-0.039,-7.694,1.392
172.175045,-0.039,-7.092,1.139
172.184824,-0.039,-6.535,0.919
172.194603,-0.078,-6.133,0.671
172.204382,-0.118,-5.751,0.539
172.214137,-0.039,-5.46,0.471
172.223892,0.039,-5.31,0.298
172.233647,0.157,-5.142,0.248
172.243402,0.235,-5.09,0.178
172.253157,0.353,-5.122,0.133
172.262912,0.431,-5.16,0.126
172.272667,0.51,-5.224,0.035
172.282422,0.588,-5.41,-0.038
172.292177,0.628,-5.635,-0.117
172.301932,0.628,-5.874,-0.12
172.311687,0.549,-6.158,-0.09
172.321442,0.51,-6.481,-0.067
172.331197,0.431,-6.74,0.046
172.340952,0.392,-6.999,0.16
172.350672,0.471,-7.328,0.221
172.360392,0.392,-7.619,0.29
172.370112,0.275,-7.937,0.512
172.379832,0.314,-8.203,0.665
172.389552,0.353,-9.014,0.522
172.399272,0.275,-10.669,0.19
172.408992,-0.118,-12.434,0.038
172.418712,-0.392,-13.057,0.406
172.428432,0,-13.086,0.799
172.438152,0.039,-13.114,0.954
172.447872,0,-13.579,1.111
172.457592,0.039,-13.95,1.404
172.467312,0.196,-14.35,1.413
172.477032,0.196,-15.211,1.102
172.486718,0,-15.874,1.025
172.496404,-0.196,-15.736,1.368
172.50609,0,-15.247,1.534
172.515776,0,-14.902,1.834
172.525462,-0.039,-14.788,2.093
172.535148,-0.157,-14.811,2.447
172.544834,-0.196,-14.813,2.686
172.55452,-0.314,-14.615,2.92
172.564206,-0.431,-14.274,3.02
172.573892,-0.628,-13.863,3.172
172.583578,-0.745,-13.406,3.292
172.593264,-0.863,-12.897,3.342
172.60295,-0.941,-12.245,3.258
172.612636,-0.941,-11.779,3.101
172.622311,-0.902,-11.364,2.776
172.631986,-0.824,-10.909,2.458
172.641661,-0.824,-10.3,2.167
172.651336,-0.745,-9.569,1.858
172.661011,-0.628,-8.753,1.524
172.670686,-0.628,-8.028,1.253
172.680361,-0.628,-7.374,0.93
172.690036,-0.588,-6.887,0.658
172.699711,-0.588,-6.447,0.417
172.709386,-0.588,-6.103,0.278
172.719061,-0.588,-5.76,0.139
172.728736,-0.51,-5.526,-0.058
172.738411,-0.549,-5.21,-0.042
172.748073,-0.51,-4.922,0.128
172.757735,-0.588,-4.515,0.08
172.767397,-0.471,-4.27,0.044
172.777059,-0.392,-4.467,-0.19
172.786721,-0.431,-4.981,-0.44
172.796383,-0.549,-5.554,-0.581
172.806045,-0.588,-5.901,-0.642
172.815707,-0.628,-6.074,-0.792
172.825369,-0.667,-6.274,-0.788
172.835031,-0.667,-6.274,-0.788
172.844693,-0.667,-6.551,-0.797
172.854355,-0.667,-6.919,-0.742
172.864017,-0.628,-7.049,-0.685
172.873679,-0.628,-7.024,-0.601
172.883302,-0.628,-6.967,-0.472
172.892925,-0.51,-6.994,-0.317
172.902548,-0.431,-7.522,-0.49
172.912171,-0.353,-9.18,-1.021
172.921794,-0.431,-11.544,-1.398
172.931417,-0.745,-12.598,-1.066
172.94104,-0.471,-13.239,-0.821
172.950663,-0.235,-13.743,-0.671
172.960286,-0.275,-14.357,-0.58
172.969909,-0.118,-15.311,-0.589
172.979532,-0.196,-16.329,-0.689
172.989155,-0.314,-16.886,-0.468
172.998778,-0.392,-16.547,-0.129
173.008401,-0.275,-16.068,0.314
173.018024,-0.235,-15.49,0.654
173.027614,-0.275,-15.177,0.909
173.037204,-0.118,-15.211,1.102
173.046794,-0.078,-15.445,1.3
173.056384,0.118,-15.608,1.55
173.065974,0.51,-15.379,1.829
173.075564,0.902,-14.84,2.163
173.085154,1.216,-14.134,2.447
173.094744,1.412,-13.266,2.72
173.104334,1.53,-12.318,2.767
173.113924,1.569,-11.659,2.644
173.123514,1.491,-11.186,2.449
173.133104,1.294,-10.714,2.253
173.142694,1.138,-10.241,2.058
173.152252,1.02,-9.684,1.837
173.16181,0.902,-9.012,1.637
173.171368,0.706,-8.41,1.385
173.180926,0.51,-7.846,1.126
173.190484,0.353,-7.367,0.892
173.200042,0.235,-6.862,0.742
173.2096,0.118,-6.235,0.573
173.219158,0.039,-5.731,0.423
173.228716,-0.039,-5.458,0.233
173.238274,-0.118,-5.192,0.08
173.247832,-0.157,-5.036,-0.131
173.25739,-0.235,-5.04,-0.331
173.266948,-0.275,-5.238,-0.565
173.276506,-0.314,-5.551,-0.82
173.286061,-0.275,-5.833,-1.029
173.295616,-0.314,-6.006,-1.179
173.305171,-0.275,-5.999,-1.217
173.314726,-0.235,-5.89,-1.158
173.324281,-0.196,-5.813,-1.144
173.333836,-0.196,-6.02,-1.101
173.343391,-0.196,-6.374,-1.124
173.352946,-0.196,-6.71,-1.024
173.362501,-0.275,-6.853,-0.89
173.372056,-0.314,-6.99,-0.794
173.381611,-0.275,-7.158,-0.744
173.391166,-0.314,-7.353,-0.54
173.400721,-0.314,-7.658,-0.394
173.410257,-0.392,-8.803,-0.676
173.419793,-0.471,-11.126,-1.285
173.429329,-0.824,-12.771,-1.216
173.438865,-1.098,-13.175,-0.73
173.448401,-0.745,-12.955,-0.173
173.457937,-0.667,-13.323,-0.119
173.467473,-0.863,-13.988,0.043
173.477009,-0.902,-14.536,-0.014
173.486545,-0.863,-15.693,-0.457
173.496081,-1.02,-16.99,-1.004
173.505617,-1.373,-16.943,-0.598
173.515153,-1.216,-16.07,-0.125
173.524689,-0.785,-15.441,0.145
173.534225,-0.628,-15.009,0.182
173.543773,-0.628,-14.625,0.488
173.553321,-0.353,-14.479,0.793
173.562869,-0.157,-14.545,0.941
173.572417,-0.196,-14.722,1.268
173.581965,-0.157,-14.331,1.536
173.591513,-0.196,-13.67,1.852
173.601061,-0.275,-12.757,2.092
173.610609,-0.392,-12.241,2.104
173.620157,-0.51,-11.873,2.049
173.629705,-0.588,-11.568,1.904
173.639253,-0.588,-11.289,1.674
173.648801,-0.706,-10.905,1.304
173.658349,-0.785,-10.369,1.199
173.667891,-0.902,-9.63,0.851
173.677433,-0.785,-8.83,0.833
173.686975,-0.745,-8.067,0.569
173.696517,-0.706,-7.31,0.344
173.706059,-0.667,-6.735,0.246
173.715601,-0.706,-6.076,0.124
173.725143,-0.628,-5.52,-0.097
173.734685,-0.588,-5.272,-0.372
173.744227,-0.588,-4.931,-0.272
173.753769,-0.628,-4.563,-0.327
173.763311,-0.588,-4.599,-0.572
173.772853,-0.667,-4.786,-0.645
173.782395,-0.706,-5.145,-0.867
173.791937,-0.745,-5.381,-1.108
173.801507,-0.824,-5.554,-1.258
173.811077,-0.745,-5.754,-1.254
173.820647,-0.863,-6.21,-1.374
173.830217,-0.941,-6.579,-1.319
173.839787,-0.941,-6.792,-1.237
173.849357,-0.902,-6.813,-1.122
173.858927,-0.863,-6.679,-0.978
173.868497,-0.785,-6.435,-0.776
173.878067,-0.706,-6.185,-0.613
173.887637,-0.628,-6.129,-0.483
173.897207,-0.549,-6.458,-0.422
173.906777,-0.431,-7.712,-0.762
173.916347,-0.471,-9.933,-1.273
173.925926,-0.588,-11.648,-1.257
173.935505,-0.667,-12.166,-1.03
173.945084,-0.51,-12.693,-1.203
173.954663,-0.588,-13.296,-0.95
173.964242,-0.471,-13.725,-0.548
173.973821,-0.275,-14.561,-0.775
173.9834,-0.196,-16.047,-1.157
173.992979,-0.353,-17.556,-1.184
174.002558,-0.431,-17.845,-0.677
174.012137,-0.314,-17.224,-0.129
174.021716,-0.275,-16.599,-0.059
174.031295,-0.235,-16.388,0.098
174.040874,-0.235,-16.179,0.493
174.050453,0,-15.661,0.943
174.060083,0.392,-14.94,1.15
174.069713,0.785,-14.518,1.463
174.079343,1.059,-13.986,1.836
174.088973,1.412,-13.529,1.956
174.098603,1.569,-12.847,2.156
174.108233,1.687,-11.902,2.442
174.117863,1.804,-11.039,2.515
174.127493,1.804,-10.509,2.449
174.137123,1.687,-10.198,2.265
174.146753,1.648,-9.898,1.919
174.156383,1.451,-9.637,1.567
174.166013,1.294,-9.228,1.281
174.175643,1.216,-8.678,1.099
174.185284,1.138,-8.114,0.84
174.194925,0.941,-7.66,0.521
174.204566,0.745,-7.251,0.235
174.214207,0.549,-6.894,0.019
174.223848,0.392,-6.474,-0.106
174.233489,0.275,-5.919,-0.088
174.24313,0.157,-5.358,-0.108
174.252771,0.118,-4.938,-0.233
174.262412,0.078,-4.813,-0.49
174.272053,0.078,-4.824,-0.651
174.281694,0,-4.867,-0.858
174.291335,-0.039,-5.015,-0.924
174.300976,-0.039,-5.029,-0.847
174.310617,-0.039,-4.958,-0.795
174.320258,0,-5.015,-0.924
174.329934,0,-5.311,-1.056
174.33961,-0.078,-5.654,-0.917
174.349286,-0.078,-5.713,-0.808
174.358962,-0.078,-5.758,-0.776
174.368638,-0.078,-6.017,-0.663
174.378314,-0.039,-6.431,-0.576
174.38799,-0.039,-6.965,-0.71
174.397666,0.039,-8.635,-1.403
174.407342,-0.078,-11.146,-1.846
174.417018,-0.353,-12.978,-1.85
174.426694,-0.353,-13.998,-1.711
174.43637,-0.235,-14.109,-1.532
174.446046,-0.196,-14.105,-1.332
174.455737,-0.039,-14.454,-1.155
174.465428,-0.157,-15.048,-1.18
174.475119,-0.314,-16,-1.427
174.48481,-0.51,-17.247,-1.806
174.494501,-0.745,-18.22,-1.938
174.504192,-0.941,-18.099,-1.718
174.513883,-1.02,-17.42,-1.279
174.523574,-1.059,-16.372,-0.895
174.533265,-1.138,-15.743,-0.625
174.542956,-1.177,-15.475,-0.339
174.552647,-1.177,-15.354,-0.118
174.562338,-1.216,-15.234,0.102
174.572029,-1.138,-14.643,0.366
174.58172,-1.098,-13.866,0.702
174.591447,-1.02,-13.068,0.922
174.601174,-0.981,-12.186,1.117
174.610901,-0.863,-11.298,1.274
174.620628,-0.785,-10.466,1.301
174.630355,-0.706,-9.705,1.276
174.640082,-0.628,-9.001,1.122
174.649809,-0.549,-8.387,1.031
174.659536,-0.549,-7.683,0.876
174.669263,-0.471,-7.087,0.662
174.67899,-0.471,-6.608,0.428
174.688717,-0.51,-6.297,0.244
174.698444,-0.471,-5.876,0.119
174.708171,-0.51,-5.347,0.053
174.71795,-0.549,-4.881,-0.104
174.727729,-0.588,-4.615,-0.256
174.737508,-0.628,-4.44,-0.345
174.747287,-0.667,-4.529,-0.52
174.757066,-0.628,-4.772,-0.722
174.766845,-0.706,-4.99,-0.84
174.776624,-0.745,-5.131,-0.945
174.786403,-0.863,-5.124,-0.983
174.796182,-0.902,-5.092,-0.938
174.805961,-0.941,-5.092,-0.938
174.81574,-0.981,-5.415,-0.915
174.825519,-1.02,-5.924,-0.965
174.835298,-1.02,-6.485,-0.944
174.845093,-0.981,-6.865,-1.051
174.854888,-0.941,-7.142,-1.06
174.864683,-0.981,-7.349,-1.017
174.874478,-0.941,-7.524,-0.928
174.884273,-0.941,-7.558,-0.735
174.894068,-0.902,-7.501,-0.606
174.903863,-0.745,-8.401,-0.924
174.913658,-0.706,-10.421,-1.439
174.923453,-0.785,-12.4,-1.509
174.933248,-1.02,-12.689,-1.003
174.943043,-0.588,-13.005,-1.018
174.952838,-0.667,-13.45,-0.978
174.962633,-0.667,-14.316,-0.812
174.972428,-0.588,-15.161,-0.761
174.982256,-0.51,-15.909,-0.814
174.992084,-0.588,-16.513,-1
175.001912,-0.745,-16.827,-1.254
175.01174,-0.785,-16.872,-1.222
175.021568,-0.863,-16.454,-1.109
175.031396,-0.824,-15.87,-0.807
175.041224,-0.824,-15.086,-0.509
175.051052,-0.745,-14.534,-0.252
175.06088,-0.588,-14.163,0.131
175.070708,-0.392,-13.927,0.372
175.080536,-0.196,-13.557,0.756
175.090364,0.118,-13.018,1.09
175.100192,0.471,-12.466,1.347
175.110017,0.706,-11.966,1.674
175.119842,0.941,-11.45,1.685
175.129667,1.098,-11.05,1.676
175.139492,1.177,-10.702,1.738
175.149317,1.177,-10.243,1.619
175.159142,1.02,-9.791,1.54
175.168967,0.824,-9.294,1.428
175.178792,0.667,-8.887,1.381
175.188617,0.471,-8.351,1.276
175.198442,0.353,-8.014,1.176
175.208267,0.196,-7.703,0.992
175.218092,0.039,-7.405,0.885
175.227917,-0.078,-7.024,0.753
175.237742,-0.157,-6.526,0.642
175.247583,-0.235,-6.113,0.555
175.257424,-0.275,-5.717,0.346
175.267265,-0.314,-5.451,0.194
175.277106,-0.353,-5.34,0.014
175.286947,-0.471,-5.39,-0.154
175.296788,-0.471,-5.415,-0.238
175.306629,-0.471,-5.317,-0.34
175.31647,-0.431,-5.272,-0.372
175.326311,-0.353,-5.195,-0.358
175.336152,-0.275,-5.188,-0.397
175.345993,-0.235,-5.426,-0.399
175.355834,-0.157,-5.665,-0.401
175.365675,-0.118,-5.833,-0.351
175.375511,-0.039,-5.949,-0.372
175.385347,-0.039,-6.124,-0.283
175.395183,-0.039,-6.351,-0.124
175.405019,-0.078,-6.642,-0.056
175.414855,-0.039,-7.696,-0.401
175.424691,-0.235,-9.698,-0.794
175.434527,-0.588,-11.748,-0.916
175.444363,-0.824,-13,-0.819
175.454199,-0.785,-13.209,-0.537
175.464035,-0.785,-13.475,-0.384
175.473871,-0.863,-14.043,-0.325
175.483707,-0.941,-14.625,-0.189
175.493543,-1.02,-15.597,-0.32
175.503379,-1.294,-16.686,-0.473
175.513206,-1.451,-17.313,-0.304
175.523033,-1.451,-17.195,0.155
175.53286,-1.334,-16.252,0.679
175.542687,-1.177,-15.179,1.147
175.552514,-1.098,-14.763,1.5
175.562341,-1.059,-15.006,1.974
175.572168,-0.981,-14.927,2.427
175.581995,-0.863,-14.311,2.774
175.591822,-0.785,-13.481,3.04
175.601649,-0.706,-12.645,3.267
175.611476,-0.628,-11.893,3.519
175.621303,-0.549,-11.25,3.712
175.63113,-0.471,-10.593,3.828
175.640957,-0.431,-9.968,3.898
175.650743,-0.353,-9.671,3.792
175.660529,-0.353,-9.598,3.605
175.670315,-0.353,-9.3,3.498
175.680101,-0.275,-8.943,3.282
175.689887,-0.275,-8.555,3.112
175.699673,-0.275,-8.128,2.948
175.709459,-0.235,-7.616,2.76
175.719245,-0.235,-7.176,2.519
175.729031,-0.314,-6.703,2.323
175.738817,-0.353,-6.058,2.278
175.748603,-0.275,-5.469,2.103
175.758389,-0.275,-4.976,1.791
175.768175,-0.353,-4.999,1.469
175.777961,-0.392,-5.172,1.319
175.787735,-0.392,-5.292,1.098
175.797509,-0.471,-5.324,1.053
175.807283,-0.471,-5.194,0.996
175.817057,-0.51,-5.174,0.88
175.826831,-0.588,-5.329,0.853
175.836605,-0.628,-5.644,0.837
175.846379,-0.745,-5.967,0.86
175.856153,-0.745,-6.167,0.864
175.865927,-0.785,-6.36,0.83
175.875701,-0.706,-6.528,0.88
175.885475,-0.667,-6.742,0.962
175.895249,-0.549,-6.878,1.058
175.905023,-0.392,-7.515,0.826
175.91479,-0.353,-9.214,0.526
175.924557,-0.392,-11.309,0.436
175.934324,-0.51,-12.011,1.029
175.944091,-0.196,-12.266,1.342
175.953858,-0.078,-12.789,1.37
175.963625,-0.118,-13.582,1.349
175.973392,-0.078,-14.793,1.215
175.983159,0,-16.372,1.136
175.992926,-0.118,-17.451,1.384
176.002693,-0.157,-17.751,1.729
176.01246,0,-17.599,1.995
176.022227,0.039,-17.013,2.059
176.031994,0.196,-16.447,2.238
176.041761,0.353,-15.881,2.418
176.051528,0.431,-15.245,2.649
176.061295,0.628,-14.454,2.908
176.071005,0.941,-13.656,3.129
176.080715,1.177,-13.013,3.322
176.090425,1.451,-12.377,3.553
176.100135,1.648,-11.779,3.778
176.109845,1.922,-11.207,3.919
176.119555,2.001,-10.82,3.987
176.129265,1.883,-10.523,3.88
176.138975,1.687,-10.18,3.742
176.148685,1.451,-9.9,3.512
176.158395,1.138,-9.659,3.276
176.168105,0.824,-9.296,3.021
176.177815,0.51,-8.894,2.773
176.187525,0.275,-8.407,2.501
176.197235,0.078,-7.921,2.228
176.206893,-0.118,-7.526,2.019
176.216551,-0.235,-7.099,1.855
176.226209,-0.392,-6.703,1.646
176.235867,-0.51,-6.315,1.476
176.245525,-0.628,-5.94,1.382
176.255183,-0.706,-5.435,1.232
176.264841,-0.706,-4.906,1.166
176.274499,-0.628,-4.504,0.919
176.284157,-0.588,-4.354,0.746
176.293815,-0.588,-4.417,0.655
176.303473,-0.628,-4.61,0.621
176.313131,-0.667,-4.695,0.646
176.322789,-0.667,-4.579,0.666
176.332447,-0.667,-4.495,0.641
176.342081,-0.628,-4.726,0.601
176.351715,-0.667,-5.081,0.578
176.361349,-0.706,-5.442,0.594
176.370983,-0.745,-5.578,0.689
176.380617,-0.706,-5.585,0.728
176.390251,-0.745,-5.676,0.792
176.399885,-0.706,-6.301,0.721
176.409519,-0.785,-8.496,0.294
176.419153,-1.255,-10.832,0.44
176.428787,-1.687,-11.909,1.126
176.438421,-1.451,-12.404,1.676
176.448055,-1.373,-12.748,1.815
176.457689,-1.412,-13.681,1.69
176.467288,-1.373,-15.356,1.475
176.476887,-1.608,-17.747,1.252
176.486486,-2.001,-19.276,2.018
176.496085,-1.844,-19.349,2.882
176.505684,-1.569,-18.751,3.107
176.515283,-1.687,-17.792,3.316
176.524882,-1.687,-17.256,3.888
176.534481,-1.608,-16.674,4.429
176.54408,-1.608,-15.633,4.851
176.553679,-1.687,-14.038,5.292
176.563278,-1.608,-12.486,5.526
176.572877,-1.53,-11.924,5.505
176.582476,-1.491,-11.5,5.58
176.592075,-1.373,-10.984,5.591
176.601665,-1.177,-10.645,5.253
176.611255,-0.902,-10.359,4.985
176.620845,-0.745,-10.241,4.767
176.630435,-0.667,-10.007,4.569
176.640025,-0.51,-9.72,4.301
176.649615,-0.431,-9.325,4.092
176.659205,-0.431,-8.916,3.805
176.668795,-0.431,-8.546,3.512
176.678385,-0.392,-8.15,3.303
176.687975,-0.431,-7.794,3.087
176.697565,-0.471,-7.417,2.755
176.707155,-0.51,-6.93,2.482
176.716745,-0.51,-6.412,2.255
176.726311,-0.51,-5.887,1.989
176.735877,-0.471,-5.537,1.812
176.745443,-0.51,-5.151,1.88
176.755009,-0.549,-4.758,1.909
176.764575,-0.51,-4.551,1.866
176.774141,-0.549,-4.601,1.698
176.783707,-0.667,-5.006,1.507
176.793273,-0.863,-5.308,1.414
176.802839,-0.981,-5.417,1.355
176.812405,-1.098,-5.499,1.141
176.821971,-1.216,-5.762,1.055
176.831537,-1.294,-6.012,0.892
176.841103,-1.334,-6.251,0.889
176.850669,-1.294,-6.36,0.83
176.860244,-1.216,-6.592,0.789
176.869819,-1.02,-6.844,0.864
176.879394,-0.863,-7.083,0.862
176.888969,-0.706,-8.051,0.253
176.898544,-0.628,-11.062,-1.194
176.908119,-0.824,-12.453,-0.762
176.917694,-0.863,-11.494,-0.553
176.927269,0,-12.166,-1.03
176.936844,-0.157,-13.125,-1.239
176.946419,-0.157,-15.277,-1.459
176.955994,-0.196,-17.502,-2.17
176.965569,-0.51,-18.681,-2.258
176.975144,-0.706,-18.806,-2.002
176.984713,-0.628,-18.379,-1.488
176.994282,-0.706,-18.065,-1.234
177.003851,-0.863,-17.718,-1.172
177.01342,-0.981,-17.274,-0.975
177.022989,-0.941,-16.522,-0.723
177.032558,-0.745,-15.468,-0.377
177.042127,-0.51,-14.4,-0.109
177.051696,-0.118,-13.377,0.19
177.061265,0.235,-12.411,0.361
177.070834,0.628,-11.55,0.672
177.080403,0.941,-11.068,0.876
177.089972,1.216,-10.734,1.015
177.099541,1.53,-10.548,1.088
177.10911,1.687,-10.484,1.179
177.118711,1.569,-10.4,1.154
177.128312,1.491,-10.089,0.969
177.137913,1.059,-9.514,0.872
177.147514,0.745,-8.919,0.658
177.157115,0.471,-8.246,0.458
177.166716,0.157,-7.451,0.24
177.176317,-0.039,-6.656,0.021
177.185918,-0.196,-6.022,-0.185
177.195519,-0.275,-5.633,-0.356
177.20512,-0.314,-5.445,-0.522
177.214721,-0.314,-5.231,-0.604
177.224322,-0.275,-4.915,-0.588
177.233923,-0.196,-4.565,-0.765
177.243535,-0.118,-4.415,-0.938
177.253147,-0.039,-4.445,-1.222
177.262759,0,-4.661,-1.579
177.272371,0,-4.729,-1.869
177.281983,0,-4.734,-2.069
177.291595,0,-4.745,-2.231
177.301207,-0.039,-4.693,-2.301
177.310819,-0.039,-4.518,-2.39
177.320431,-0.039,-4.497,-2.506
177.330043,-0.039,-4.625,-2.688
177.339655,-0.039,-5.004,-2.794
177.349267,-0.078,-5.94,-3.358
177.358879,-0.078,-9.292,-4.905
177.368491,-0.51,-11.308,-5.22
177.378145,-0.588,-12.842,-6.009
177.387799,-0.549,-15.653,-7.46
177.397453,-1.059,-17.126,-8.596
177.407107,-1.765,-17.998,-8.392
177.416761,-1.961,-17.703,-7.583
177.426415,-1.804,-16.769,-6.781
177.436069,-2.079,-16.257,-6.292
177.445723,-2.118,-16.378,-5.835
177.455377,-1.922,-16.573,-5.631
177.465031,-1.844,-16.843,-5.678
177.474685,-1.804,-16.932,-5.176
177.484339,-1.804,-15.8,-4.14
177.493993,-1.726,-14.855,-3.177
177.503689,-1.687,-14.609,-2.536
177.513385,-1.765,-14.736,-2.041
177.523081,-1.883,-14.38,-1.58
177.532777,-1.922,-13.691,-1.418
177.542473,-2.001,-12.855,-1.191
177.552169,-1.922,-11.844,-1.053
177.561865,-1.765,-10.973,-1.019
177.571561,-1.53,-10.005,-1.087
177.581257,-1.294,-9.115,-1.169
177.590953,-1.098,-8.276,-1.18
177.600649,-0.941,-7.463,-1.276
177.610345,-0.824,-6.726,-1.385
177.620041,-0.785,-6.029,-1.501
177.629737,-0.863,-5.577,-1.581
177.639448,-0.902,-5.227,-1.758
177.649159,-0.902,-4.981,-1.794
177.65887,-0.941,-4.799,-1.922
177.668581,-0.981,-4.734,-2.069
177.678292,-0.981,-4.745,-2.231
177.688003,-0.981,-5.168,-2.544
177.697714,-1.098,-5.881,-2.79
177.707425,-1.177,-6.549,-3.067
177.717136,-1.294,-7.217,-3.344
177.726847,-1.412,-8.033,-3.687
177.736558,-1.53,-8.549,-3.698
177.746269,-1.608,-8.581,-3.744
177.75598,-1.569,-9.049,-4.025
177.765691,-1.608,-9.924,-4.259
177.775409,-1.687,-10.506,-4.123
177.785127,-1.648,-10.79,-4.093
177.794845,-1.648,-10.983,-4.127
177.804563,-1.53,-12.185,-4.538
177.814281,-1.608,-13.017,-4.566
177.823999,-1.648,-13.623,-4.513
177.833717,-1.569,-14.491,-4.786
177.843435,-1.648,-15.257,-4.961
177.853153,-1.491,-16.216,-5.17
177.862871,-1.412,-15.948,-4.883
177.872589,-1.138,-15.332,-4.536
177.882307,-0.667,-15.307,-4.452
177.892025,-0.471,-14.968,-4.113
177.901743,-0.039,-14.796,-3.963
177.91147,0.157,-13.934,-3.652
177.921197,0.431,-13.303,-3.62
177.930924,0.706,-12.744,-3.402
177.940651,0.981,-11.746,-3.186
177.950378,1.334,-11.385,-3.202
177.960105,1.491,-10.335,-3.057
177.969832,1.883,-9.96,-3.15
177.979559,2.079,-9.747,-3.232
177.989286,2.118,-9.142,-3.046
177.999013,2.236,-8.44,-2.962
178.00874,2.275,-7.558,-2.767
178.018467,2.354,-6.936,-2.458
178.028194,2.354,-6.376,-2.24
178.037921,2.314,-5.972,-2.049
178.047675,2.275,-5.715,-1.924
178.057429,2.157,-5.529,-1.851
178.067183,2.001,-5.529,-1.851
178.076937,1.765,-5.536,-1.813
178.086691,1.53,-5.62,-1.788
178.096445,1.373,-5.627,-1.749
178.106199,1.334,-5.57,-1.619
178.115953,1.255,-5.679,-1.678
178.125707,1.138,-5.886,-1.635
178.135461,1.059,-6.086,-1.631
178.145215,0.902,-6.408,-1.608
178.154969,0.667,-6.692,-1.578
178.164723,0.431,-6.963,-1.626
178.174483,0.196,-7.324,-1.61
178.184243,0,-7.763,-1.608
178.194003,-0.235,-8.124,-1.592
178.203763,-0.392,-8.306,-1.465
178.213523,-0.549,-8.596,-1.396
178.223283,-0.667,-8.899,-1.489
178.233043,-0.745,-9.394,-1.617
178.242803,-0.667,-10.076,-1.816
178.252563,-0.706,-10.539,-1.898
178.262323,-0.706,-11.073,-2.032
178.272083,-0.824,-11.639,-2.212
178.281843,-0.902,-12.071,-2.248
178.291603,-1.059,-12.707,-2.48
178.301363,-1.138,-13.557,-2.629
178.311129,-1.334,-13.366,-2.357
178.320895,-1.373,-13.13,-2.116
178.330661,-1.334,-13.046,-2.141
178.340427,-1.491,-13.696,-2.295
178.350193,-1.726,-14.173,-2.3
178.359959,-1.726,-14.823,-2.454
178.369725,-1.804,-14.73,-2.079
178.379491,-1.726,-13.589,-1.321
178.389257,-1.491,-12.639,-0.834
178.399023,-1.216,-11.978,-0.519
178.408789,-0.981,-11.35,-0.01
178.418555,-0.785,-10.478,0.463
178.428321,-0.549,-9.853,0.533
178.438087,-0.392,-10.296,0.335
178.447878,-0.785,-10.303,0.374
178.457669,-1.059,-10.619,0.358
178.46746,-1.412,-10.15,0.64
178.477251,-1.648,-9.83,0.856
178.487042,-1.804,-9.625,1.051
178.496833,-1.804,-9.805,0.94
178.506624,-1.765,-10.114,0.885
178.516415,-1.687,-10.171,0.756
178.526206,-1.53,-10.164,0.717
178.535997,-1.373,-9.964,0.713
178.545788,-1.294,-9.803,0.701
178.555579,-1.216,-9.603,0.697
178.56537,-1.216,-9.389,0.615
178.575162,-1.294,-9.137,0.54
178.584954,-1.334,-8.776,0.524
178.594746,-1.412,-8.601,0.435
178.604538,-1.491,-8.349,0.36
178.61433,-1.569,-8.219,0.303
178.624122,-1.687,-8.199,0.187
178.633914,-1.726,-8.133,0.04
178.643706,-1.726,-8.119,-0.037
178.653498,-1.648,-8.144,-0.122
178.66329,-1.451,-8.162,-0.244
178.673082,-1.334,-8.169,-0.206
178.682874,-1.177,-8.015,-0.178
178.692666,-1.098,-7.719,-0.047
178.702458,-0.981,-7.456,0.04
178.712247,-0.863,-7.724,-0.247
178.722036,-0.824,-7.91,-0.319
178.731825,-0.745,-8.001,-0.256
178.741614,-0.588,-8.058,-0.385
178.751403,-0.431,-8.269,-0.542
178.761192,-0.431,-8.61,-0.642
178.770981,-0.51,-8.842,-0.683
178.78077,-0.588,-9.137,-0.814
178.790559,-0.667,-9.844,-1.098
178.800348,-0.785,-10.16,-1.114
178.810137,-0.745,-10.93,-1.489
178.819926,-0.588,-11.998,-1.757
178.829715,-0.549,-12.507,-1.807
178.839504,-0.392,-13.182,-2.046
178.849303,-0.392,-13.964,-2.582
178.859102,-0.392,-14.537,-2.723
178.868901,-0.471,-14.639,-2.82
178.8787,-0.353,-14.343,-2.688
178.888499,-0.118,-13.705,-2.695
178.898298,0.196,-13.562,-2.829
178.908097,0.628,-13.407,-2.802
178.917896,1.02,-13.091,-2.786
178.927695,1.294,-12.198,-2.43
178.937494,1.569,-11.058,-2.348
178.947293,1.53,-11.139,-2.562
178.957092,1.53,-10.901,-2.559
178.966891,1.569,-10.612,-2.389
178.976688,1.569,-10.058,-2.371
178.986485,1.687,-9.787,-2.323
178.996282,1.765,-9.742,-2.355
179.006079,1.804,-9.485,-2.23
179.015876,1.883,-9.183,-2.137
179.025673,1.961,-8.706,-2.133
179.03547,1.883,-8.372,-1.994
179.045267,1.648,-8.031,-1.894
179.055064,1.412,-7.767,-1.808
179.064861,1.216,-7.574,-1.774
179.074658,0.941,-7.388,-1.701
179.084455,0.745,-7.349,-1.694
179.094252,0.588,-7.335,-1.771
179.104049,0.392,-7.304,-1.726
179.113839,0.314,-7.304,-1.726
179.123629,0.196,-7.342,-1.733
179.133419,0.078,-7.419,-1.746
179.143209,0,-7.529,-1.805
179.152999,-0.039,-7.644,-1.826
179.162789,-0.039,-7.644,-1.826
179.172579,-0.039,-7.76,-1.846
179.182369,-0.039,-7.96,-1.842
179.192159,0.039,-8.199,-1.844
179.201949,0.039,-8.322,-1.826
179.211739,0.078,-8.374,-1.755
179.221529,0.118,-8.426,-1.685
179.231319,0.196,-8.556,-1.628
179.241109,0.235,-8.826,-1.676
179.250862,0.314,-9.135,-1.73
179.260615,0.314,-9.444,-1.785
179.270368,0.392,-9.901,-1.905
179.280121,0.51,-10.203,-1.998
179.289874,0.549,-10.642,-1.996
179.299627,0.471,-10.842,-1.991
179.30938,0.471,-11.105,-2.078
179.319133,0.431,-11.439,-2.216
179.328886,0.314,-11.689,-2.38
179.338639,0.235,-12.08,-2.648
179.348392,0.118,-11.996,-2.673
179.358145,0.039,-11.88,-2.652
179.367898,0,-12.021,-2.757
179.377651,0,-13.055,-3.218
179.387395,-0.157,-14.725,-3.911
179.397139,-0.275,-15.468,-3.763
179.406883,-0.392,-13.968,-2.782
179.416627,-0.314,-12.26,-2.082
179.426371,-0.118,-10.937,-1.45
179.436115,-0.118,-9.821,-0.776
179.445859,0,-9.253,-0.158
179.455603,-0.039,-8.585,0.119
179.465347,-0.196,-9.235,-0.035
179.475091,-0.588,-9.751,-0.046
179.484835,-0.863,-10.157,0.001
179.494579,-0.981,-10.153,0.201
179.504323,-1.098,-9.839,0.456
179.514022,-1.255,-9.764,0.708
179.523721,-1.216,-10.323,0.49
179.53342,-1.255,-10.668,0.867
179.543119,-1.059,-11.18,0.379
179.552818,-0.941,-11.053,0.561
179.562517,-0.785,-11.205,0.295
179.572216,-0.785,-10.787,0.408
179.581915,-0.745,-10.766,0.292
179.591614,-0.824,-10.58,0.365
179.601313,-0.863,-10.507,0.179
179.611012,-0.941,-10.157,0.001
179.620711,-0.902,-9.976,-0.126
179.63041,-0.863,-9.967,-0.403
179.640109,-0.667,-9.76,-0.446
179.649808,-0.431,-9.385,-0.54
179.659482,-0.431,-9.035,-0.717
179.669156,-0.353,-8.905,-0.774
179.67883,-0.275,-8.646,-0.887
179.688504,-0.157,-8.317,-0.949
179.698178,-0.078,-8.006,-1.133
179.707852,-0.118,-7.715,-1.201
179.717526,-0.118,-7.399,-1.185
179.7272,-0.118,-7.101,-1.292
179.736874,-0.157,-7.022,-1.517
179.746548,-0.078,-7.335,-1.771
179.756222,-0.275,-6.84,-1.644
179.765896,-0.157,-6.729,-1.824
179.77557,-0.275,-7.185,-1.944
179.785206,-0.392,-7.874,-2.105
179.794842,-0.471,-8.358,-2.071
179.804478,-0.51,-8.872,-2.321
179.814114,-0.549,-9.753,-2.516
179.82375,-0.824,-10.237,-2.482
179.833386,-1.02,-10.946,-2.528
179.843022,-1.216,-11.623,-2.527
179.852658,-1.334,-11.941,-2.305
179.862294,-1.334,-12.394,-2.225
179.87193,-1.255,-12.998,-2.411
179.881566,-1.02,-14.214,-2.745
179.891202,-0.863,-14.686,-2.55
179.900838,-0.745,-14.296,-2.282
179.910474,-0.549,-14.559,-2.368
179.920079,-0.431,-14.7,-2.473
179.929684,-0.275,-14.418,-2.264
179.939289,0.039,-13.916,-2.175
179.948894,0.353,-13.509,-2.223
179.958499,0.549,-12.734,-2.325
179.968104,0.628,-11.535,-2.353
179.977709,0.785,-10.412,-2.394
179.987314,0.902,-9.301,-2.596
179.996919,0.863,-8.217,-2.644
180.006524,0.628,-7.647,-2.942
180.016129,0.196,-7.272,-3.035
180.025734,-0.353,-6.792,-3.269
180.035339,-0.981,-6.693,-3.61
180.044944,-1.765,-6.838,-3.914
180.054544,-2.55,-7.145,-4.207
180.064144,-3.217,-7.279,-4.351
180.073744,-3.727,-7.17,-4.291
180.083344,-3.883,-7.306,-4.196
180.092944,-3.766,-7.688,-4.064
180.102544,-3.373,-8.076,-3.894
180.112144,-2.707,-8.272,-3.689
180.121744,-1.765,-8.249,-3.366
180.131344,-0.706,-8.297,-3.096
180.140944,0.157,-8.281,-2.735
180.150544,0.706,-8.153,-2.553
180.160144,1.02,-8.14,-2.63
180.169744,1.334,-8.185,-2.598
180.179329,1.569,-8.224,-2.605
180.188914,1.765,-8.294,-2.657
180.198499,2.001,-8.235,-2.767
180.208084,2.275,-8.249,-2.689
180.217669,2.511,-8.217,-2.644
180.227254,2.746,-8.288,-2.696
180.236839,2.785,-8.597,-2.751
180.246424,2.667,-8.86,-2.837
180.256009,2.511,-9.053,-2.871
180.265594,2.157,-9.149,-3.007
180.275179,1.922,-9.36,-3.164
180.284764,1.765,-9.469,-3.223
180.294349,1.569,-9.41,-3.332
180.303934,1.451,-9.044,-3.148
180.313532,1.373,-8.826,-3.03
180.32313,1.255,-9.019,-3.064
180.332728,1.02,-9.29,-3.112
180.342326,0.902,-9.515,-3.191
180.351924,0.824,-9.547,-3.237
180.361522,0.706,-9.501,-3.269
180.37112,0.51,-9.719,-3.387
180.380718,0.275,-10.074,-3.409
180.390316,0,-10.351,-3.418
180.399914,-0.431,-10.249,-3.321
180.409512,-0.824,-10.256,-3.282
180.41911,-1.216,-10.571,-3.298
180.428708,-1.726,-10.88,-3.352
180.438296,-2.118,-11.067,-3.425
180.447884,-2.589,-11.087,-3.309
180.457472,-3.099,-11.537,-3.468
180.46706,-3.53,-12.957,-3.998
180.476648,-3.727,-14.666,-4.697
180.486236,-3.766,-14.448,-4.579
180.495824,-3.53,-13.053,-4.134
180.505412,-3.217,-11.512,-3.384
180.515,-2.864,-10.649,-2.634
180.524588,-2.471,-9.655,-1.942
180.534176,-2.079,-9.169,-1.537
180.543764,-1.844,-8.374,-1.078
180.553352,-1.53,-8.012,-1.094
180.56294,-1.334,-8.126,-1.353
180.572528,-1.294,-8.51,-1.66
180.582116,-1.216,-8.669,-1.887
180.59172,-1.177,-8.301,-1.942
180.601324,-1.216,-8.249,-2.012
180.610928,-1.177,-8.242,-2.051
180.620532,-0.981,-8.074,-2.101
180.630136,-0.824,-8.26,-2.173
180.63974,-0.706,-8.415,-2.201
180.649344,-0.51,-8.699,-2.171
180.658948,-0.471,-9.11,-2.323
180.668552,-0.471,-9.619,-2.373
180.678156,-0.471,-10.044,-2.448
180.68776,-0.549,-10.187,-2.314
180.697364,-0.667,-10.119,-2.023
180.706968,-0.785,-10.373,-1.71
180.716574,-0.902,-10.551,-1.382
180.72618,-0.981,-10.637,-1.119
180.735786,-1.059,-10.548,-0.944
180.745392,-1.098,-10.485,-0.853
180.754998,-1.098,-10.285,-0.858
180.764604,-1.138,-10.078,-0.901
180.77421,-1.216,-9.78,-1.008
180.783816,-1.216,-9.469,-1.192
180.793422,-1.216,-9.249,-1.312
180.803028,-1.138,-8.983,-1.464
180.812634,-1.059,-8.626,-1.68
180.82224,-0.902,-8.283,-1.819
180.831846,-0.706,-8.038,-1.855
180.841452,-0.51,-7.708,-1.917
180.851088,-0.314,-7.494,-1.999
180.860724,-0.196,-7.899,-2.189
180.87036,-0.078,-8.085,-2.262
180.879996,0.039,-8.381,-2.394
180.889632,0.078,-9.024,-2.587
180.899268,0.118,-9.583,-2.805
180.908904,0.157,-9.987,-2.996
180.91854,0.078,-9.801,-2.923
180.928176,0,-9.981,-3.034
180.937812,-0.235,-10.805,-3.1
180.947448,-0.51,-11.139,-3.239
180.957084,-0.824,-11.537,-3.468
180.96672,-1.255,-11.274,-3.382
180.976409,-1.412,-10.79,-3.416
180.986098,-1.451,-10.737,-3.487
180.995787,-1.412,-10.48,-3.362
181.005476,-1.255,-9.992,-3.196
181.015165,-1.059,-9.824,-3.246
181.024854,-0.902,-10.608,-3.543
181.034543,-0.824,-11.38,-3.68
181.044232,-0.745,-11.026,-3.657
181.053921,-0.706,-10.717,-3.602
181.06361,-0.745,-10.79,-3.416
181.073299,-0.667,-10.765,-3.332
181.082988,-0.588,-10.54,-3.253
181.092677,-0.431,-10.49,-3.084
181.10241,-0.314,-10.528,-3.091
181.112143,-0.157,-10.503,-3.007
181.121876,-0.039,-10.074,-2.732
181.131609,0.118,-9.694,-2.625
181.141342,0.275,-9.56,-2.482
181.151075,0.588,-9.085,-2.239
181.160808,1.098,-9.367,-2.448
181.170541,1.294,-9.49,-2.43
181.180274,1.451,-9.476,-2.507
181.190007,1.451,-9.36,-2.487
181.19974,1.255,-9.417,-2.616
181.209473,1.098,-9.983,-2.796
181.219206,0.941,-10.433,-2.955
181.228939,0.863,-10.639,-2.912
181.238688,0.902,-10.653,-2.834
181.248437,0.902,-10.392,-2.509
181.258186,0.902,-10.169,-2.191
181.267935,0.863,-9.93,-2.189
181.277684,0.902,-9.853,-2.176
181.287433,0.785,-9.885,-2.221
181.297182,0.785,-9.819,-2.369
181.306931,0.745,-9.58,-2.366
181.31668,0.588,-8.956,-2.296
181.326429,0.471,-8.626,-2.357
181.336178,0.314,-8.447,-2.246
181.345927,0.078,-8.465,-2.369
181.355676,-0.235,-8.458,-2.407
181.365425,-0.628,-8.335,-2.426
181.37517,-1.177,-8.374,-2.433
181.384915,-1.844,-8.381,-2.394
181.39466,-2.785,-8.517,-2.298
181.404405,-4.276,-8.976,-2.18
181.41415,-6.512,-9.258,-1.712
181.423895,-8.63,-9.094,-1.285
181.43364,-9.14,-8.737,-0.824
181.443385,-8.12,-8.689,-0.417
181.45313,-6.708,-8.769,-0.192
181.462875,-4.786,-9.235,-0.035
181.47262,-2.707,-9.435,-0.03
181.482365,-0.628,-9.105,-0.092
181.49211,1.216,-8.787,-0.315
181.501855,2.785,-9.08,-0.685
181.511613,4.04,-9.694,-1.271
181.521371,4.982,-9.744,-1.439
181.531129,5.531,-9.985,-1.88
181.540887,5.845,-10.021,-2.126
181.550645,6.002,-9.955,-2.273
181.560403,6.08,-9.978,-2.596
181.570161,5.962,-10.099,-2.816
181.579919,5.727,-10.015,-2.841
181.589677,5.335,-9.876,-3.175
181.599435,4.707,-9.876,-3.175
181.609193,4.001,-9.953,-3.189
181.618951,3.491,-10.43,-3.193
181.628709,2.824,-10.594,-2.943
181.638497,2.314,-10.324,-2.896
181.648285,1.804,-10.562,-2.898
181.658073,1.334,-10.628,-2.75
181.667861,1.02,-10.712,-2.725
181.677649,0.745,-10.73,-2.848
181.687437,0.588,-11.68,-3.334
181.697225,0.392,-13.216,-3.884
181.707013,0.314,-14.064,-4.272
181.716801,0.314,-13.839,-4.193
181.726589,0.275,-12.51,-3.6
181.736377,0.431,-10.783,-2.778
181.746165,0.549,-8.712,-2.094
181.755953,0.745,-7.424,-1.946
181.765739,0.981,-6.885,-1.612
181.775525,1.687,-6.165,-1.406
181.785311,2.55,-5.52,-1.451
181.795097,3.491,-5.465,-1.76
181.804883,4.276,-6.424,-1.969
181.814669,4.903,-7.049,-2.04
181.824455,5.296,-7.719,-2.078
181.834241,5.139,-8.835,-2.076
181.844027,4.433,-9.633,-1.619
181.853813,3.53,-10.435,-1.362
181.863599,2.197,-11.335,-1.003
181.873385,0.745,-12.368,-0.787
181.883171,-0.51,-13.309,-0.873
181.892957,-1.569,-13.836,-1.046
181.902757,-2.354,-13.911,-1.298
181.912557,-2.824,-13.716,-1.502
181.922357,-3.217,-13.387,-1.564
181.932157,-3.452,-12.741,-1.609
181.941957,-3.687,-11.896,-1.659
181.951757,-3.805,-11.148,-1.607
181.961557,-3.883,-10.376,-1.471
181.971357,-3.923,-9.621,-1.457
181.981157,-3.883,-8.93,-1.535
181.990957,-3.805,-8.601,-1.596
182.000757,-3.57,-8.317,-1.626
182.010557,-3.256,-8.058,-1.739
182.020357,-3.02,-8.013,-1.771
182.030156,-2.707,-7.69,-1.794
182.039955,-2.471,-7.329,-1.81
182.049754,-2.275,-6.974,-1.787
182.059553,-2.236,-6.838,-1.883
182.069352,-2.157,-6.838,-1.883
182.079151,-2.157,-6.824,-1.96
182.08895,-2.118,-7.056,-2.001
182.098749,-2.118,-7.39,-2.14
182.108548,-2.157,-7.59,-2.135
182.118347,-2.197,-7.731,-2.239
182.128146,-2.197,-7.969,-2.242
182.137945,-2.197,-8.117,-2.308
182.147744,-2.236,-8.335,-2.426
182.157543,-2.197,-8.631,-2.557
182.167345,-2.157,-9.042,-2.71
182.177147,-2.157,-9.46,-2.823
182.186949,-2.079,-9.801,-2.923
182.196751,-1.922,-10.04,-2.925
182.206553,-1.883,-10.303,-3.012
182.216355,-1.804,-10.465,-3
182.226157,-1.726,-10.521,-3.13
182.235959,-1.687,-10.592,-3.182
182.245761,-1.648,-10.585,-3.221
182.255563,-1.608,-10.578,-3.259
182.265365,-1.53,-11.099,-3.471
182.275167,-1.569,-11.035,-3.38
182.284969,-1.491,-10.964,-3.327
182.294757,-1.334,-11.042,-3.341
182.304545,-1.216,-11.333,-3.273
182.314333,-0.941,-11.539,-3.23
182.324121,-0.785,-11.662,-3.211
182.333909,-0.588,-12.003,-3.311
182.343697,-0.431,-12.485,-3.516
182.353485,-0.275,-12.819,-3.654
182.363273,-0.118,-12.651,-3.704
182.373061,-0.039,-12.292,-3.482
182.382849,0.118,-11.739,-3.225
182.392637,0.275,-11.458,-3.016
182.402425,0.471,-11.221,-2.775
182.412213,0.706,-10.887,-2.637
182.422001,0.981,-10.56,-2.459
182.431771,1.216,-10.096,-2.378
182.441541,1.373,-10.146,-2.546
182.451311,1.373,-10.055,-2.61
182.461081,1.491,-9.683,-2.464
182.470851,1.451,-9.167,-2.453
182.480621,1.412,-9.135,-2.407
182.490391,1.334,-9.122,-2.485
182.500161,1.255,-9.037,-2.51
182.509931,1.098,-9.083,-2.478
182.519701,1.02,-8.851,-2.437
182.529471,0.902,-8.672,-2.326
182.539241,0.785,-8.394,-2.317
182.549011,0.667,-8.292,-2.219
182.558781,0.588,-8.138,-2.192
182.568506,0.471,-7.899,-2.189
182.578231,0.314,-7.751,-2.124
182.587956,0.275,-7.713,-2.117
182.597681,0.157,-7.681,-2.071
182.607406,0.118,-7.681,-2.071
182.617131,0.078,-7.688,-2.033
182.626856,0.039,-7.765,-2.046
182.636581,0,-7.842,-2.06
182.646306,0,-7.997,-2.087
182.656031,0,-8.081,-2.062
182.665756,0,-8.074,-2.101
182.675481,-0.078,-8.119,-2.069
182.685206,-0.078,-8.274,-2.096
182.694931,-0.157,-8.274,-2.096
182.704645,-0.157,-8.338,-2.187
182.714359,-0.196,-8.453,-2.208
182.724073,-0.235,-8.583,-2.151
182.733787,-0.275,-8.442,-2.046
182.743501,-0.314,-8.449,-2.008
182.753215,-0.314,-8.765,-2.023
182.762929,-0.392,-9.042,-2.032
182.772643,-0.392,-9.492,-2.191
182.782357,-0.431,-10.167,-2.43
182.792071,-0.471,-10.848,-2.63
182.801785,-0.431,-11.569,-2.837
182.811499,-0.431,-11.948,-2.943
182.821213,-0.353,-12.416,-3.225
182.830884,-0.353,-12.648,-3.266
182.840555,-0.275,-12.585,-3.175
182.850226,-0.314,-12.507,-3.161
182.859897,-0.196,-12.378,-3.218
182.869568,-0.196,-12.635,-3.343
182.879239,-0.275,-13.032,-3.573
182.88891,-0.392,-13.278,-3.536
182.898581,-0.51,-13.2,-3.523
182.908252,-0.706,-12.655,-3.227
182.917923,-0.863,-11.937,-2.782
182.927594,-0.941,-11.546,-2.514
182.937265,-1.059,-11.182,-2.091
182.946936,-1.138,-10.612,-1.712
182.956607,-1.177,-9.939,-1.235
182.966278,-1.138,-9.869,-1.183
182.975921,-1.177,-9.973,-1.042
182.985564,-1.177,-9.812,-1.053
182.995207,-1.216,-10.146,-1.192
183.00485,-1.334,-9.787,-0.969
183.014493,-1.334,-9.471,-0.953
183.024136,-1.334,-9.471,-0.953
183.033779,-1.255,-9.805,-1.092
183.043422,-1.255,-10.017,-1.248
183.053065,-1.177,-9.862,-1.221
183.062708,-1.098,-9.567,-1.089
183.072351,-1.059,-9.296,-1.042
183.081994,-0.981,-9.187,-0.983
183.091637,-0.981,-9.026,-0.994
183.101246,-0.981,-8.794,-0.953
183.110855,-0.981,-8.492,-0.86
183.120464,-0.981,-8.169,-0.883
183.130073,-1.02,-7.892,-0.874
183.139682,-1.02,-7.769,-0.892
183.149291,-1.02,-7.685,-0.917
183.1589,-1.02,-7.672,-0.994
183.168509,-1.059,-7.626,-1.026
183.178118,-0.981,-7.722,-1.162
183.187727,-0.981,-7.799,-1.176
183.197336,-0.941,-7.876,-1.19
183.206945,-0.941,-7.978,-1.287
183.216554,-0.902,-8.087,-1.346
183.226163,-0.824,-8.017,-1.294
183.235751,-0.785,-8.003,-1.371
183.245339,-0.628,-8.287,-1.342
183.254927,-0.667,-8.26,-1.496
183.264515,-0.628,-8.465,-1.692
183.274103,-0.588,-8.721,-1.817
183.283691,-0.588,-9.133,-1.969
183.293279,-0.628,-9.46,-2.146
183.302867,-0.667,-9.878,-2.26
183.312455,-0.706,-10.36,-2.464
183.322043,-0.785,-10.848,-2.63
183.331631,-0.863,-10.978,-2.573
183.341219,-0.902,-10.792,-2.5
183.350807,-0.824,-11.221,-2.775
183.360395,-0.863,-12.026,-2.957
183.369985,-0.863,-12.123,-2.855
183.379575,-0.785,-12.014,-2.796
183.389165,-0.745,-11.842,-2.646
183.398755,-0.667,-12.126,-2.616
183.408345,-0.628,-12.775,-2.77
183.417935,-0.588,-13.444,-3.048
183.427525,-0.628,-13.503,-2.939
183.437115,-0.588,-13.032,-2.895
183.446705,-0.549,-12.455,-2.555
183.456295,-0.392,-11.857,-2.33
183.465885,-0.314,-11.407,-2.171
183.475475,-0.157,-10.957,-2.012
183.485065,0.039,-11.021,-2.103
183.494654,0.039,-10.392,-1.832
183.504243,0.353,-10.762,-2.216
183.513832,0.392,-10.935,-2.366
183.523421,0.549,-10.496,-2.369
183.53301,0.745,-10.224,-2.559
183.542599,0.824,-9.94,-2.589
183.552188,0.902,-9.971,-2.635
183.561777,0.902,-9.681,-2.703
183.571366,0.981,-9.41,-2.655
183.580955,0.981,-9.133,-2.646
183.590544,0.902,-8.831,-2.553
183.600133,0.863,-8.637,-2.519
183.609722,0.706,-8.406,-2.478
183.619311,0.706,-8.206,-2.483
183.628907,0.431,-7.66,-2.187
183.638503,0.392,-7.435,-2.108
183.648099,0.235,-7.558,-2.089
183.657695,0.157,-7.604,-2.058
183.667291,0.039,-7.579,-1.974
183.676887,0,-7.54,-1.967
183.686483,-0.078,-7.508,-1.921
183.696079,-0.078,-7.617,-1.98
183.705675,-0.078,-7.624,-1.942
183.715271,-0.039,-7.626,-1.703
183.724867,-0.078,-7.678,-1.633
183.734463,-0.157,-7.778,-1.969
183.744059,-0.118,-7.849,-2.021
183.753655,-0.118,-7.935,-1.758
183.763286,-0.235,-8.015,-1.533
183.772917,-0.275,-8.137,-1.515
183.782548,-0.275,-8.69,-1.771
183.792179,-0.431,-8.942,-1.696
183.80181,-0.471,-8.503,-1.699
183.811441,-0.431,-8.946,-1.896
183.821072,-0.431,-9.385,-1.894
183.830703,-0.431,-9.79,-2.085
183.840334,-0.471,-10.251,-2.405
183.849965,-0.549,-10.869,-2.514
183.859596,-0.628,-11.126,-2.639
183.869227,-0.667,-11.003,-2.657
183.878858,-0.706,-11.01,-2.618
183.888508,-0.667,-11.312,-2.712
183.898158,-0.745,-11.839,-2.884
183.907808,-0.785,-11.898,-2.775
183.917458,-0.745,-11.751,-2.709
183.927108,-0.667,-11.835,-2.684
183.936758,-0.628,-12.157,-2.661
183.946408,-0.628,-12.557,-2.652
183.956058,-0.588,-12.937,-2.759
183.965708,-0.628,-13.734,-2.979
183.975358,-0.431,-13.809,-2.554
183.985008,-0.588,-13.157,-2.639
183.994658,-0.745,-12.503,-2.284
184.004308,-0.785,-11.662,-1.857
184.013958,-0.549,-11.269,-1.828
184.023651,-0.706,-9.914,-1.151
184.033344,-0.353,-9.969,-1.519
184.043037,-0.431,-10.542,-1.66
184.05273,-0.588,-10.598,-1.789
184.062423,-0.706,-10.278,-1.573
184.072116,-0.941,-10.033,-1.61
184.081809,-1.177,-10.014,-1.487
184.091502,-1.451,-10.228,-1.405
184.101195,-1.53,-10.532,-1.26
184.110888,-1.648,-10.314,-1.142
184.120581,-1.687,-9.98,-1.003
184.130274,-1.687,-9.703,-0.994
184.139967,-1.726,-9.264,-0.996
184.149673,-1.765,-8.735,-1.062
184.159379,-1.648,-8.324,-0.91
184.169085,-1.648,-8.187,-1.006
184.178791,-1.491,-7.924,-0.919
184.188497,-1.334,-7.787,-1.015
184.198203,-1.216,-7.69,-1.117
184.207909,-1.059,-7.837,-1.183
184.217615,-0.902,-7.676,-1.194
184.227321,-0.785,-7.713,-1.44
184.237027,-0.785,-7.622,-1.503
184.246733,-0.706,-7.485,-1.599
184.256439,-0.706,-7.394,-1.662
184.266145,-0.745,-7.292,-1.565
184.275851,-0.745,-7.426,-1.708
184.285591,-0.824,-7.44,-1.631
184.295331,-0.745,-7.349,-1.694
184.305071,-0.745,-7.449,-2.03
184.314811,-0.706,-7.881,-2.067
184.324551,-0.628,-8.176,-2.198
184.334291,-0.628,-8.51,-2.337
184.344031,-0.667,-8.556,-2.305
184.353771,-0.745,-8.703,-2.371
184.363511,-0.902,-9.076,-2.516
184.373251,-1.02,-9.403,-2.694
184.382991,-1.098,-10.149,-2.984
184.392731,-1.255,-10.621,-2.789
184.402471,-1.294,-10.33,-2.857
184.412216,-1.138,-10.24,-2.921
184.421961,-0.981,-11.087,-3.309
184.431706,-0.785,-12.087,-3.286
184.441451,-0.667,-12.298,-3.443
184.451196,-0.471,-12.446,-3.509
184.460941,-0.275,-12.351,-3.373
184.470686,-0.078,-12.68,-3.311
184.480431,0.078,-13.562,-3.507
184.490176,0.157,-14.264,-3.591
184.499921,0.157,-14.446,-3.463
184.509666,0.078,-13.435,-3.325
184.519411,0.078,-12.457,-2.993
184.529156,0.078,-11.685,-2.857
184.538901,0.078,-10.939,-2.566
184.548675,0.275,-10.669,-2.519
184.558449,0.314,-10.149,-2.307
184.568223,0.588,-10.165,-2.669
184.577997,0.706,-10.705,-2.764
184.587771,0.628,-10.358,-2.703
184.597545,0.745,-10.042,-2.687
184.607319,0.785,-10.001,-2.919
184.617093,0.745,-10.021,-2.803
184.626867,0.667,-10.11,-2.978
184.636641,0.628,-9.56,-2.482
184.646415,0.588,-9.037,-2.51
184.656189,0.353,-8.567,-2.467
184.665963,0.235,-8.26,-2.173
184.675739,0.078,-8.222,-2.167
184.685515,-0.039,-8.049,-2.017
184.695291,0,-7.876,-1.867
184.705067,-0.078,-7.831,-1.899
184.714843,-0.078,-7.728,-1.801
184.724619,-0.157,-7.922,-1.835
184.734395,-0.196,-7.922,-1.835
184.744171,-0.196,-7.928,-1.796
184.753947,-0.118,-7.813,-1.776
184.763723,0.039,-7.994,-1.649
184.773499,0,-7.66,-1.51
184.783275,0,-7.506,-1.483
184.793051,-0.078,-7.447,-1.592
184.802827,-0.157,-7.588,-1.696
184.812585,-0.235,-7.529,-1.805
184.822343,-0.392,-7.599,-1.858
184.832101,-0.51,-7.508,-1.921
184.841859,-0.471,-7.751,-2.124
184.851617,-0.706,-7.803,-2.053
184.861375,-0.824,-8.099,-2.185
184.871133,-0.863,-8.472,-2.33
184.880891,-0.902,-9.192,-2.537
184.890649,-0.902,-9.951,-2.75
184.900407,-0.863,-10.394,-2.948
184.910165,-0.863,-10.774,-3.055
184.919923,-0.785,-11.037,-3.141
184.929681,-0.863,-11.005,-3.096
184.939439,-0.863,-11.185,-3.207
184.949249,-0.824,-11.455,-3.255
184.959059,-0.785,-11.712,-3.38
184.968869,-0.785,-11.648,-3.289
184.978679,-0.667,-11.867,-3.407
184.988489,-0.549,-12.517,-3.561
184.998299,-0.392,-13.525,-3.938
185.008109,-0.314,-14.446,-4.14
185.017919,-0.392,-13.998,-3.743
185.027729,-0.314,-12.939,-3.198
185.037539,-0.275,-11.532,-2.591
185.047349,-0.235,-10.692,-2.164
185.057159,-0.314,-10.385,-1.871
185.066969,-0.431,-10.43,-1.839
185.076752,-0.51,-10.514,-1.814
185.086535,-0.628,-10.76,-1.778
185.096318,-0.706,-10.689,-1.725
185.106101,-0.745,-10.471,-1.607
185.115884,-0.785,-10.408,-1.516
185.125667,-0.706,-10.576,-1.466
185.13545,-0.745,-10.596,-1.351
185.145233,-0.745,-10.494,-1.253
185.155016,-0.785,-10.392,-1.155
185.164799,-0.863,-10.173,-1.037
185.174582,-0.902,-9.826,-0.976
185.184365,-1.02,-9.369,-0.855
185.194148,-1.098,-8.835,-0.721
185.203931,-1.216,-8.249,-0.658
185.213705,-1.216,-7.81,-0.66
185.223479,-1.216,-7.56,-0.497
185.233253,-1.177,-7.34,-0.617
185.243027,-1.138,-7.203,-0.713
185.252801,-1.059,-7.113,-0.776
185.262575,-0.981,-7.022,-0.84
185.272349,-0.941,-6.994,-0.994
185.282123,-0.902,-7.083,-1.169
185.291897,-0.863,-7.263,-1.281
185.301671,-0.824,-7.39,-1.462
185.311445,-0.706,-7.383,-1.501
185.321219,-0.628,-7.422,-1.508
185.330993,-0.51,-7.594,-1.658
185.34073,-0.471,-8.237,-1.851
185.350467,-0.431,-8.392,-1.878
185.360204,-0.353,-8.508,-1.898
185.369941,-0.275,-8.649,-2.003
185.379678,-0.235,-9.131,-2.207
185.389415,-0.235,-9.471,-2.307
185.399152,-0.235,-9.696,-2.387
185.408889,-0.196,-10.287,-2.65
185.418626,-0.275,-10.758,-2.693
185.428363,-0.275,-10.912,-2.721
185.4381,-0.196,-11.503,-2.984
185.447837,-0.118,-12.044,-3.08
185.457574,0.039,-12.328,-3.05
185.467311,0.118,-12.335,-3.011
185.477029,0.235,-12.355,-2.896
185.486747,0.275,-13.25,-3.014
185.496465,0.392,-14.125,-3.247
185.506183,0.314,-14.223,-3.145
185.515901,0.353,-13.664,-2.927
185.525619,0.353,-12.996,-2.65
185.535337,0.353,-12.425,-2.271
185.545055,0.353,-11.835,-2.007
185.554773,0.471,-11.803,-1.962
185.564491,0.51,-11.223,-1.859
185.574209,0.745,-11.826,-2.284
185.583927,0.706,-12.064,-2.287
185.593645,0.785,-11.889,-2.375
185.603366,0.863,-11.553,-2.475
185.613087,0.902,-11.532,-2.591
185.622808,0.941,-11.423,-2.532
185.632529,0.941,-10.612,-2.389
185.64225,1.059,-9.769,-2.201
185.651971,1.059,-9.042,-2.032
185.661692,1.098,-8.469,-1.892
185.671413,1.059,-8.142,-1.714
185.681134,0.981,-7.763,-1.608
185.690855,0.902,-7.467,-1.476
185.700576,0.745,-7.333,-1.333
185.710297,0.588,-7.231,-1.235
185.720018,0.471,-7.122,-1.176
185.729723,0.314,-7.076,-1.208
185.739428,0.157,-7.16,-1.183
185.749133,0.078,-7.206,-1.151
185.758838,-0.039,-7.315,-1.21
185.768543,-0.118,-7.36,-1.178
185.778248,-0.078,-7.438,-1.192
185.787953,-0.039,-7.585,-1.258
185.797658,0.039,-7.644,-1.149
185.807363,0.039,-7.612,-1.103
185.817068,0,-7.69,-1.117
185.826773,-0.078,-8.133,-1.315
185.836478,-0.235,-8.185,-1.244
185.846183,-0.235,-8.087,-1.346
185.855888,-0.235,-8.383,-1.478
185.865567,-0.157,-8.937,-1.496
185.875246,0,-9.644,-1.78
185.884925,0.118,-10.287,-1.973
185.894604,0.118,-10.673,-2.041
185.904283,0.157,-10.885,-2.198
185.913962,0.118,-11.296,-2.35
185.923641,0.039,-11.81,-2.6
185.93332,0,-12.471,-2.916
185.942999,-0.078,-12.305,-2.727
185.952678,0.118,-12.112,-2.693
185.962357,0.235,-12.126,-2.616
185.972036,0.431,-12.473,-2.677
185.981715,0.51,-13.123,-2.832
185.991394,0.628,-14.037,-3.073
186.001045,0.549,-14.302,-2.92
186.010696,0.392,-13.384,-2.48
186.020347,0.431,-12.775,-2.093
186.029998,0.157,-11.207,-1.498
186.039649,0.078,-10.18,-0.998
186.0493,0,-9.967,-1.08
186.058951,-0.157,-10.367,-1.071
186.068602,-0.314,-10.603,-1.312
186.078253,-0.471,-10.621,-1.435
186.087904,-0.588,-10.298,-1.457
186.097555,-0.628,-9.842,-1.337
186.107206,-0.588,-9.621,-1.457
186.116857,-0.51,-9.705,-1.432
186.126508,-0.431,-9.783,-1.446
186.136162,-0.314,-9.737,-1.478
186.145816,-0.275,-9.614,-1.496
186.15547,-0.157,-9.576,-1.489
186.165124,-0.078,-9.499,-1.476
186.174778,-0.039,-9.376,-1.494
186.184432,0.078,-9.151,-1.414
186.194086,0.157,-8.926,-1.335
186.20374,0.314,-8.694,-1.294
186.213394,0.471,-8.417,-1.285
186.223048,0.745,-8.256,-1.296
186.232702,1.177,-8.106,-1.469
186.242356,1.883,-8.033,-1.655
186.25201,2.903,-8.006,-1.81
186.261658,3.923,-7.894,-1.989
186.271306,4.707,-7.863,-1.944
186.280954,5.06,-7.767,-1.808
186.290602,5.06,-7.594,-1.658
186.30025,4.786,-7.519,-1.406
186.309898,4.315,-7.444,-1.153
186.319546,3.844,-7.587,-1.019
186.329194,3.334,-7.744,-0.808
186.338842,2.824,-8.255,-0.619
186.34849,2.197,-8.574,-0.396
186.358138,1.491,-8.801,-0.237
186.367786,0.824,-9.173,-0.383
186.377434,0.118,-9.58,-0.335
186.387082,-0.431,-9.807,-0.176
186.396718,-0.785,-10.194,-0.244
186.406354,-1.216,-10.607,-0.158
186.41599,-1.53,-10.396,-0.001
186.425626,-1.648,-10.6,-0.196
186.435262,-1.844,-10.948,-0.258
186.444898,-1.844,-11.394,-0.217
186.454534,-1.804,-11.38,-0.294
186.46417,-1.53,-11.244,-0.389
186.473806,-1.177,-11.346,-0.487
186.483442,-0.863,-12.687,-1.241
186.493078,-0.667,-14.893,-1.829
186.502714,-1.098,-13.816,-1.162
186.51235,-0.785,-12.305,-0.696
186.521986,-0.235,-11.357,-0.648
186.531609,0.275,-11.45,-0.346
186.541232,0.785,-11.375,-0.094
186.550855,1.451,-11.264,-0.273
186.560478,1.726,-11.803,-0.607
186.570101,1.373,-11.764,-0.601
186.579724,1.216,-12.159,-1.069
186.589347,0.824,-12.332,-1.219
186.59897,0.549,-12.505,-1.368
186.608593,0.196,-12.13,-1.462
186.618216,0.039,-11.705,-1.387
186.627839,-0.039,-11.094,-1.239
186.637462,-0.118,-10.335,-1.026
186.647085,-0.275,-9.755,-0.923
186.656708,-0.471,-9.717,-0.917
186.66635,-0.667,-9.73,-0.839
186.675992,-0.863,-9.564,-0.651
186.685634,-1.02,-9.16,-0.46
186.695276,-1.294,-8.569,-0.196
186.704918,-1.451,-8.215,-0.174
186.71456,-1.648,-8.51,-0.306
186.724202,-1.765,-8.78,-0.353
186.733844,-1.804,-8.921,-0.458
186.743486,-1.726,-8.746,-0.546
186.753128,-1.765,-8.578,-0.596
186.76277,-1.804,-8.058,-0.385
186.772412,-2.04,-7.696,-0.401
186.782054,-2.236,-7.746,-0.569
186.791711,-2.314,-8.196,-0.728
186.801368,-2.079,-8.505,-0.783
186.811025,-1.687,-8.499,-0.821
186.820682,-1.216,-8.474,-0.737
186.830339,-0.824,-8.517,-0.944
186.839996,-0.549,-8.787,-0.992
186.849653,-0.314,-9.199,-1.144
186.85931,-0.078,-9.596,-1.373
186.868967,0,-9.794,-1.607
186.878624,0.118,-9.967,-1.757
186.888281,0.314,-10.21,-1.96
186.897938,0.353,-10.246,-2.205
186.907595,0.235,-10.258,-2.366
186.917252,0.078,-10.637,-2.473
186.926904,-0.275,-11.346,-2.518
186.936556,-0.667,-11.605,-2.405
186.946208,-0.863,-11.771,-2.593
186.95586,-1.138,-11.785,-2.516
186.965512,-1.255,-11.866,-2.053
186.975164,-1.373,-12.187,-2.268
186.984816,-1.412,-11.953,-1.789
186.994468,-1.608,-12.171,-1.907
187.00412,-1.608,-11.85,-1.691
187.013772,-1.765,-11.671,-1.58
187.023424,-1.961,-11.394,-1.571
187.033076,-1.922,-10.976,-1.457
187.042728,-1.883,-10.551,-1.382
187.05238,-1.765,-10.294,-1.257
187.06205,-1.569,-10.064,-0.978
187.07172,-1.334,-9.673,-0.71
187.08139,-1.059,-9.276,-0.48
187.09106,-0.981,-8.724,-0.224
187.10073,-0.981,-8.596,-0.042
187.1104,-0.981,-8.596,-0.042
187.12007,-0.981,-9.064,-0.324
187.12974,-1.02,-9.451,-0.392
187.13941,-1.059,-9.687,-0.633
187.14908,-1.138,-9.969,-0.842
187.15875,-1.255,-9.962,-0.88
187.16842,-1.373,-9.917,-0.912
187.17809,-1.451,-9.742,-1.001
187.187755,-1.569,-9.658,-1.026
187.19742,-1.608,-9.883,-1.105
187.207085,-1.608,-10.269,-1.173
187.21675,-1.53,-10.603,-1.312
187.226415,-1.451,-10.751,-1.378
187.23608,-1.451,-10.532,-1.26
187.245745,-1.451,-10.371,-1.271
187.25541,-1.412,-10.185,-1.198
187.265075,-1.412,-9.967,-1.08
187.27474,-1.373,-9.78,-1.008
187.284405,-1.255,-9.548,-0.967
187.29407,-1.177,-9.542,-1.005
187.303735,-1.059,-9.464,-0.992
187.3134,-0.981,-9.721,-1.117
187.323084,-0.51,-10.555,-0.905
187.332768,-0.471,-9.562,-0.889
187.342452,-0.471,-9.319,-1.364
187.352136,-0.549,-9.635,-1.38
187.36182,-0.706,-9.674,-1.387
187.371504,-0.785,-9.401,-1.578
187.381188,-0.863,-8.821,-1.476
187.390872,-0.941,-8.34,-1.271
187.400556,-0.745,-7.335,-1.094
187.41024,-0.471,-7.049,-1.362
187.419924,-0.314,-8.356,-1.633
187.429608,-0.314,-8.628,-1.442
187.439292,-0.471,-8.69,-1.771
187.449015,-0.51,-9.049,-1.994
187.458738,-0.588,-9.365,-2.01
187.468461,-0.706,-9.46,-2.146
187.478184,-0.863,-9.426,-2.339
187.487907,-0.941,-9.715,-2.51
187.49763,-1.138,-9.758,-2.716
187.507353,-1.334,-9.91,-2.982
187.517076,-1.334,-10.249,-3.321
187.526799,-1.412,-10.503,-3.684
187.536522,-1.334,-11.521,-4.461
187.546245,-1.294,-11.321,-4.466
187.555968,-1.294,-10.149,-4.339
187.565691,-0.941,-9.008,-4.257
187.575422,-0.628,-8.645,-4.512
187.585153,-0.314,-9.46,-4.855
187.594884,-0.196,-10.133,-5.332
187.604615,-0.118,-10.356,-5.65
187.614346,-0.157,-9.91,-5.691
187.624077,-0.275,-9.345,-5.511
187.633808,-0.275,-8.958,-5.443
187.643539,-0.235,-8.258,-5.121
187.65327,-0.118,-7.436,-4.816
187.663001,0,-7.565,-4.759
187.672732,0,-8.211,-4.714
187.682463,-0.157,-8.572,-4.698
187.692194,-0.314,-8.69,-4.48
187.701925,-0.471,-9.045,-4.503
187.711656,-0.549,-9.438,-4.532
187.721387,-0.549,-9.631,-4.566
187.731118,-0.588,-9.458,-4.416
187.740849,-0.667,-8.997,-4.096
187.75058,-0.588,-8.406,-3.832
187.760311,-0.314,-8.099,-3.539
187.770042,0,-8.147,-3.269
187.779773,0.353,-8.381,-3.071
187.789504,0.588,-8.653,-2.88
187.799235,0.745,-9.049,-2.671
187.808966,0.706,-9.367,-2.448
187.818697,0.667,-9.601,-2.251
187.828428,0.667,-9.835,-2.053
187.838159,0.706,-9.792,-1.846
187.847911,0.863,-9.796,-2.046
187.857663,0.745,-9.971,-1.957
187.867415,0.706,-10.067,-2.094
187.877167,0.588,-10.201,-2.237
187.886919,0.314,-10.065,-2.332
187.896671,0.078,-9.703,-2.348
187.906423,-0.039,-9.381,-2.371
187.916175,-0.157,-9.135,-2.407
187.925927,-0.157,-9.012,-2.426
187.935679,-0.118,-9.076,-2.516
187.945431,-0.118,-8.915,-2.528
187.955183,-0.078,-8.862,-2.598
187.964935,-0.078,-9.56,-3.159
187.974691,-0.235,-11.712,-4.057
187.984447,-0.51,-11.78,-4.348
187.994203,-0.941,-10.999,-3.811
188.003959,-1.608,-9.297,-3.073
188.013715,-2.354,-8.999,-2.503
188.023471,-3.256,-8.908,-1.889
188.033227,-4.433,-8.235,-1.412
188.042983,-5.256,-8.755,-0.946
188.052739,-6.394,-8.96,-0.465
188.062495,-7.218,-9.744,-0.085
188.072251,-7.414,-10.996,0.013
188.082007,-7.178,-12.421,-0.039
188.091763,-6.394,-13.239,-0.144
188.101519,-5.727,-13.039,-0.148
188.111285,-5.06,-13.096,-0.278
188.121051,-4.354,-12.63,-0.435
188.130817,-3.57,-12.084,-0.816
188.140583,-2.864,-11.753,-1.116
188.150349,-2.157,-11.71,-1.587
188.160115,-1.451,-11.673,-2.018
188.169881,-0.785,-11.523,-2.191
188.179647,-0.196,-11.128,-2.4
188.189413,0.275,-11.042,-2.664
188.199179,0.431,-11.001,-2.896
188.208945,0.588,-10.226,-2.998
188.218711,0.706,-9.147,-3.246
188.228477,0.745,-8.351,-3.464
188.238243,0.549,-8.142,-3.746
188.24799,0.353,-7.997,-4.119
188.257737,0.118,-7.699,-4.225
188.267484,-0.118,-7.113,-4.162
188.277231,-0.314,-6.599,-3.912
188.286978,-0.314,-6.111,-3.746
188.296725,-0.157,-5.847,-3.66
188.306472,-0.039,-5.718,-3.717
188.316219,0.157,-5.743,-3.801
188.325966,0.314,-5.859,-3.821
188.335713,0.431,-6.038,-3.933
188.34546,0.51,-6.39,-4.194
188.355207,0.549,-6.552,-4.182
188.364954,0.549,-6.345,-4.226
188.374701,0.51,-6.384,-4.232
188.384452,0.471,-6.686,-4.326
188.394203,0.314,-6.654,-4.28
188.403954,0.078,-6.879,-4.36
188.413705,-0.235,-7.438,-4.578
188.423456,-0.549,-7.681,-4.78
188.433207,-1.059,-7.758,-4.794
188.442958,-1.608,-8.922,-5.198
188.452709,-2.079,-10.658,-5.743
188.46246,-2.432,-11.519,-6.054
188.472211,-2.393,-12.072,-6.311
188.481962,-2.314,-13.08,-6.688
188.491713,-2.275,-13.778,-6.572
188.501464,-1.883,-12.79,-6.079
188.511226,-1.334,-12.003,-5.343
188.520988,-0.628,-11.751,-4.741
188.53075,0,-11.896,-4.368
188.540512,0.863,-11.564,-3.991
188.550274,2.001,-11.362,-3.557
188.560036,2.942,-10.833,-2.946
188.569798,3.648,-10.842,-2.668
188.57956,3.844,-10.792,-2.5
188.589322,3.727,-10.521,-2.453
188.599084,3.295,-10.199,-2.475
188.608846,2.746,-9.662,-2.58
188.618608,2.118,-9.428,-2.778
188.62837,1.491,-9.581,-3.044
188.638132,1.02,-8.847,-2.914
188.647875,0.549,-8.378,-2.632
188.657618,0.078,-8.667,-2.803
188.667361,-0.314,-9.026,-3.025
188.677104,-0.588,-9.031,-3.225
188.686847,-0.785,-8.547,-3.26
188.69659,-0.667,-7.949,-3.035
188.706333,-0.471,-7.642,-2.742
188.716076,-0.235,-7.658,-2.426
188.725819,-0.078,-8.053,-2.217
188.735562,0.118,-8.558,-2.067
188.745305,0.157,-9.165,-2.014
188.755048,0.118,-9.392,-1.855
188.764791,0.039,-9.205,-1.783
188.774534,-0.078,-8.91,-1.651
188.784282,-0.157,-8.356,-1.633
188.79403,-0.275,-8.517,-1.621
188.803778,-0.314,-8.478,-1.614
188.813526,-0.235,-8.665,-1.687
188.823274,-0.118,-8.626,-1.68
188.833022,0.039,-8.272,-1.658
188.84277,0.157,-8.019,-1.733
188.852518,0.157,-8.133,-1.992
188.862266,0.118,-8.01,-2.01
188.872014,0.157,-7.885,-2.267
188.881762,0.078,-8.019,-2.41
188.89151,-0.039,-8.147,-2.592
188.901258,-0.235,-8.274,-2.773
188.910988,-0.392,-8.622,-2.835
188.920718,-0.588,-9.053,-2.871
188.930448,-0.824,-9.594,-2.966
188.940178,-1.02,-10.349,-2.98
188.949908,-1.294,-11.487,-3.3
188.959638,-1.491,-12.328,-3.727
188.969368,-1.648,-12.451,-3.709
188.979098,-1.687,-12.253,-3.475
188.988828,-1.726,-12.439,-3.548
188.998558,-1.726,-15.771,-5.211
189.008288,-2.118,-15.832,-4.863
189.018018,-1.334,-12.187,-3.623
189.027748,-0.588,-9.855,-1.937
189.037478,-0.51,-9.43,-1.185
189.047208,-0.824,-10.86,-1.437
189.056936,-1.412,-11.182,-1.414
189.066664,-1.922,-11.894,-1.221
189.076392,-2.314,-12.932,-1.205
189.08612,-2.55,-13.984,-1.111
189.095848,-2.511,-14.05,-0.964
189.105576,-2.236,-13.748,-0.871
189.115304,-2.001,-13.452,-0.739
189.125032,-1.648,-12.966,-1.012
189.13476,-1.334,-12.187,-0.914
189.144488,-1.138,-11.516,-0.876
189.154216,-0.902,-10.551,-0.705
189.163944,-0.706,-9.56,-0.451
189.173672,-0.667,-9.037,-0.478
189.183373,-0.588,-8.776,-0.83
189.193074,-0.785,-8.483,-1.137
189.202775,-0.981,-8.028,-1.455
189.212476,-1.138,-7.458,-1.753
189.222177,-1.255,-6.922,-1.858
189.231878,-1.255,-6.495,-2.021
189.241579,-1.138,-6.338,-2.233
189.25128,-1.059,-6.124,-2.315
189.260981,-0.941,-5.942,-2.442
189.270682,-0.667,-5.94,-2.681
189.280383,-0.51,-6.081,-2.785
189.290084,-0.314,-5.874,-2.828
189.299785,-0.196,-5.629,-2.865
189.309486,-0.039,-5.872,-3.067
189.319162,0.039,-5.686,-2.994
189.328838,0.235,-5.679,-3.033
189.338514,0.314,-5.943,-3.119
189.34819,0.314,-6.227,-3.09
189.357866,0.235,-6.465,-3.092
189.367542,0.078,-6.904,-3.089
189.377218,-0.118,-7.201,-2.983
189.386894,-0.353,-7.345,-2.848
189.39657,-0.628,-8.49,-3.13
189.406246,-0.863,-10.665,-3.673
189.415922,-1.216,-12.567,-4.407
189.425598,-1.687,-13.839,-4.87
189.435274,-1.961,-14.071,-4.911
189.44495,-1.961,-14.605,-5.045
189.454595,-2.04,-15.825,-5.579
189.46424,-2.118,-16.871,-5.524
189.473885,-1.961,-14.787,-4.918
189.48353,-1.451,-13.426,-4.279
189.493175,-1.098,-12.657,-3.666
189.50282,-0.471,-12.248,-3.275
189.512465,0.235,-11.819,-3
189.52211,1.098,-11.167,-2.407
189.531755,2.04,-11.514,-2.468
189.5414,2.628,-12.141,-2.3
189.551045,3.02,-11.548,-2.275
189.56069,3.256,-11.587,-2.282
189.570335,3.06,-11.716,-2.225
189.57998,2.785,-11.58,-2.321
189.589618,2.471,-11.201,-2.214
189.599256,2.079,-10.673,-2.041
189.608894,1.726,-10.044,-1.771
189.618532,1.373,-9.576,-1.489
189.62817,1.02,-9.119,-1.369
189.637808,0.706,-8.662,-1.249
189.647446,0.353,-8.392,-1.201
189.657084,0.078,-8.14,-1.276
189.666722,-0.196,-7.74,-1.285
189.67636,-0.471,-7.547,-1.251
189.685998,-0.706,-7.115,-1.215
189.695636,-0.824,-6.806,-1.16
189.705274,-0.902,-6.56,-1.197
189.714914,-0.941,-6.958,-1.426
189.724554,-0.902,-6.854,-1.567
189.734194,-0.745,-6.67,-1.933
189.743834,-0.667,-7.213,-2.467
189.753474,-0.785,-7.088,-2.724
189.763114,-0.785,-6.12,-2.792
189.772754,-0.824,-5.79,-2.853
189.782394,-0.785,-6.033,-3.055
189.792034,-0.706,-6.995,-3.703
189.801674,-0.628,-7.765,-4.078
189.811314,-0.392,-8.188,-4.391
189.820954,-0.196,-8.476,-4.562
189.830594,-0.235,-8.663,-4.634
189.840234,-0.196,-8.836,-4.784
189.849858,-0.157,-9.04,-4.98
189.859482,-0.157,-9.22,-5.091
189.869106,-0.118,-9.058,-5.102
189.87873,-0.078,-9.245,-5.175
189.888354,-0.157,-9.29,-5.143
189.897978,-0.275,-10.292,-5.559
189.907602,-0.471,-11.026,-5.688
189.917226,-0.588,-9.608,-4.921
189.92685,-0.706,-9.406,-4.487
189.936474,-0.941,-11.269,-4.536
189.946098,-1.177,-12.903,-4.984
189.955722,-1.373,-14.207,-5.493
189.965346,-1.648,-14.773,-5.672
189.97497,-1.961,-14.203,-5.293
189.984605,-2.157,-12.808,-4.847
189.99424,-2.354,-11.196,-4.045
190.003875,-2.628,-10.281,-3.366
190.01351,-2.903,-9.885,-2.898
190.023145,-3.452,-9.644,-2.457
190.03278,-3.844,-10.16,-2.469
190.042415,-4.276,-10.955,-2.25
190.05205,-4.393,-11.092,-2.155
190.061685,-4.236,-11.164,-1.969
190.07132,-3.962,-11.114,-1.8
190.080955,-3.57,-11.03,-1.825
190.09059,-3.138,-10.694,-1.925
190.100225,-2.864,-10.23,-1.844
190.109881,-2.432,-9.399,-1.817
190.119537,-2.157,-8.876,-1.844
190.129193,-1.883,-8.785,-1.908
190.138849,-1.687,-8.424,-1.923
190.148505,-1.53,-8.024,-1.933
190.158161,-1.412,-7.547,-1.928
190.167817,-1.373,-7.174,-1.783
190.177473,-1.373,-6.697,-1.778
190.187129,-1.373,-6.535,-1.79
190.196785,-1.451,-6.624,-1.965
190.206441,-1.491,-6.808,-2.276
190.216097,-1.53,-7.024,-2.633
190.225753,-1.648,-7.201,-2.983
190.235409,-1.726,-7.47,-3.269
190.245065,-1.804,-7.242,-3.428
190.254721,-1.883,-6.824,-3.314
190.264377,-1.883,-6.495,-3.376
190.274033,-1.844,-6.199,-3.244
190.283689,-1.608,-5.968,-3.203
190.293345,-1.412,-6.468,-3.53
190.303001,-1.294,-6.765,-3.423
190.312657,-1.059,-6.745,-3.539
190.322313,-1.02,-7.138,-3.569
190.331969,-0.941,-7.197,-3.46
190.341625,-0.902,-7.717,-3.671
190.351281,-1.02,-8.426,-3.716
190.360937,-1.098,-8.883,-3.837
190.370593,-1.177,-9.513,-4.107
190.380279,-1.294,-9.965,-4.027
190.389965,-1.216,-9.799,-3.839
190.399651,-1.098,-9.665,-3.696
190.409337,-0.863,-11.176,-4.161
190.419023,-0.785,-12.201,-4.223
190.428709,-0.471,-11.871,-4.284
190.438395,-0.235,-12.478,-4.232
190.448081,-0.118,-12.757,-4.002
190.457767,-0.078,-12.953,-3.798
190.467453,0,-13.973,-4.336
190.477139,-0.078,-15.814,-4.74
190.486825,-0.235,-15.112,-4.656
190.496511,-0.118,-13.91,-4.245
190.506191,-0.196,-12.755,-3.564
190.515871,-0.196,-12.194,-3.584
190.525551,-0.392,-11.36,-3.118
190.535231,-0.314,-10.803,-3.339
190.544911,-0.235,-11.305,-3.427
190.554591,-0.078,-10.878,-3.591
190.564271,0.235,-10.576,-3.498
190.573951,0.51,-10.39,-3.425
190.583631,0.863,-10.333,-3.296
190.593311,1.059,-9.928,-3.105
190.602991,1.177,-9.376,-2.848
190.612671,1.177,-8.869,-2.56
190.622351,1.02,-8.292,-2.219
190.632031,0.902,-7.74,-1.962
190.641711,0.667,-7.522,-1.844
190.651407,0.431,-7.283,-1.842
190.661103,0.235,-7.29,-1.803
190.670799,0.039,-7.251,-1.796
190.680495,-0.078,-7.201,-1.628
190.690191,-0.196,-6.442,-1.415
190.699887,-0.275,-6.281,-1.426
190.709583,-0.588,-6.788,-1.715
190.719279,-0.785,-7.454,-2.23
190.728975,-0.902,-8.108,-2.585
190.738671,-0.981,-7.84,-2.976
190.748367,-1.138,-7.672,-3.026
190.758063,-1.294,-7.556,-3.005
190.767759,-1.294,-7.517,-2.998
190.77745,-1.294,-7.51,-3.037
190.787141,-1.373,-7.815,-2.892
190.796832,-1.451,-8.142,-3.069
190.806523,-1.491,-8.735,-3.094
190.816214,-1.53,-8.324,-2.942
190.825905,-1.491,-8.506,-2.814
190.835596,-1.412,-8.494,-2.653
190.845287,-1.255,-8.617,-2.635
190.854978,-1.059,-8.849,-2.676
190.864669,-0.902,-8.656,-2.642
190.87436,-0.745,-9.26,-2.828
190.884051,-0.588,-9.776,-2.839
190.893742,-0.51,-10.015,-2.841
190.903433,-0.549,-10.535,-3.053
190.913158,-0.588,-12.157,-3.339
190.922883,-0.706,-13.212,-3.684
190.932608,-0.824,-11.96,-3.105
190.942333,-0.706,-11.364,-2.641
190.952058,-0.824,-11.714,-2.464
190.961783,-0.824,-15.416,-4.511
190.971508,-1.412,-17.439,-4.788
190.981233,-1.569,-14.255,-4.545
190.990958,-1.138,-13.33,-3.466
191.000683,-1.53,-12.812,-2.339
191.010408,-1.844,-12.207,-1.475
191.020133,-2.314,-10.41,-1.278
191.029858,-3.138,-10.405,-1.078
191.039583,-3.687,-11.098,-1.439
191.049316,-4.315,-10.944,-1.412
191.059049,-4.903,-10.796,-1.346
191.068782,-5.021,-10.789,-1.385
191.078515,-4.864,-11.216,-1.221
191.088248,-4.393,-11.203,-1.298
191.097981,-3.805,-10.946,-1.173
191.107714,-3.177,-10.63,-1.157
191.117447,-2.589,-9.946,-1.196
191.12718,-2.157,-9.508,-1.198
191.136913,-1.844,-8.887,-1.328
191.146646,-1.608,-8.256,-1.296
191.156379,-1.491,-7.694,-1.317
191.166112,-1.451,-7.119,-1.415
191.175845,-1.451,-6.52,-1.428
191.185572,-1.373,-6.181,-1.767
191.195299,-1.294,-6.065,-1.747
191.205026,-1.334,-5.595,-1.703
191.214753,-1.334,-5.195,-1.713
191.22448,-1.216,-5.206,-1.874
191.234207,-1.255,-5.777,-2.253
191.243934,-1.373,-6.456,-2.692
191.253661,-1.491,-6.827,-3.076
191.263388,-1.726,-7.186,-3.298
191.273115,-1.961,-7.456,-3.346
191.282842,-2.157,-7.315,-3.242
191.292569,-2.275,-7.413,-3.139
191.302296,-2.275,-8.269,-3.251
191.312023,-2.354,-8.051,-3.132
191.321762,-2.118,-8.29,-3.135
191.331501,-2.001,-8.581,-3.066
191.34124,-1.922,-8.722,-3.171
191.350979,-1.883,-8.928,-3.128
191.360718,-1.922,-8.89,-3.121
191.370457,-1.961,-9.237,-3.182
191.380196,-1.961,-9.733,-3.309
191.389935,-2.04,-9.912,-3.421
191.399674,-2.04,-11.23,-3.852
191.409413,-2.118,-11.998,-3.789
191.419152,-2.157,-10.892,-3.514
191.428891,-1.961,-11.228,-3.414
191.43863,-1.687,-12.169,-3.5
191.448357,-1.451,-13.203,-3.961
191.458084,-1.177,-14.223,-4.5
191.467811,-1.059,-15.257,-4.961
191.477538,-1.138,-14.519,-4.631
191.487265,-1.059,-12.805,-4.409
191.496992,-0.863,-11.694,-3.934
191.506719,-0.706,-10.66,-3.473
191.516446,-0.392,-10.196,-3.391
191.526173,-0.078,-9.71,-2.987
191.5359,0.392,-10.178,-3.268
191.545627,0.706,-10.585,-3.221
191.555354,1.098,-10.185,-3.23
191.565081,1.412,-10.419,-3.032
191.574808,1.608,-10.149,-2.984
191.584541,1.726,-9.969,-2.873
191.594274,1.608,-9.726,-2.671
191.604007,1.451,-9.451,-2.423
191.61374,1.138,-8.899,-2.167
191.623473,0.824,-8.328,-1.787
191.633206,0.471,-8.376,-1.517
191.642939,0.235,-8.558,-1.389
191.652672,-0.118,-8.746,-1.224
191.662405,-0.471,-8.726,-1.339
191.672138,-0.745,-8.649,-1.326
191.681871,-0.941,-8.487,-1.337
191.691604,-0.941,-8.133,-1.315
191.701337,-0.902,-7.869,-1.228
191.71107,-0.745,-7.999,-1.171
191.720803,-0.667,-8.062,-1.262
191.730536,-0.628,-8.101,-1.269
191.740269,-0.588,-7.862,-1.267
191.750002,-0.628,-7.778,-1.292
191.759735,-0.628,-7.56,-1.174
191.769468,-0.588,-7.624,-1.265
191.779201,-0.51,-7.926,-1.358
191.788934,-0.431,-8.303,-1.703
191.798667,-0.471,-8.265,-1.696
191.8084,-0.431,-8.097,-1.746
191.818133,-0.471,-8.051,-1.778
191.827866,-0.588,-8.024,-1.933
191.837599,-0.745,-8.39,-2.117
191.847312,-0.981,-8.942,-2.373
191.857025,-1.138,-9.533,-2.637
191.866738,-1.255,-10.071,-2.971
191.876451,-1.373,-10.694,-3.28
191.886164,-1.373,-11.087,-3.309
191.895877,-1.334,-11.414,-3.486
191.90559,-1.373,-12.328,-3.727
191.915303,-1.451,-12.348,-3.611
191.925016,-1.608,-11.551,-3.391
191.934729,-1.765,-11.56,-3.114
191.944442,-2.118,-11.903,-2.975
191.954155,-2.393,-12.946,-3.159
191.963868,-2.667,-14.112,-3.325
191.973581,-2.864,-14.673,-3.304
191.983306,-3.02,-14.412,-2.979
191.993031,-2.981,-12.955,-2.205
192.002756,-2.785,-11.653,-1.457
192.012481,-2.707,-10.755,-0.901
192.022206,-2.785,-10.357,-0.671
192.031931,-2.785,-10.498,-0.776
192.041656,-2.903,-10.503,-0.976
192.051381,-2.903,-10.948,-0.935
192.061106,-2.981,-10.646,-0.842
192.070831,-2.903,-10.673,-0.687
192.080556,-2.785,-10.982,-0.742
192.090281,-2.707,-11.28,-0.635
192.100006,-2.55,-10.912,-0.689
192.109738,-2.393,-10.287,-0.619
192.11947,-2.157,-10.017,-0.571
192.129202,-2.001,-9.823,-0.537
192.138934,-1.922,-9.476,-0.476
192.148666,-1.765,-9.094,-0.608
192.158398,-1.726,-8.694,-0.617
192.16813,-1.648,-8.196,-0.728
192.177862,-1.648,-7.867,-0.79
192.187594,-1.648,-7.506,-0.806
192.197326,-1.687,-7.201,-0.951
192.207058,-1.726,-7.219,-1.074
192.21679,-1.765,-7.147,-1.26
192.226522,-1.765,-7.203,-1.39
192.236254,-1.765,-7.203,-1.39
192.245971,-1.765,-6.894,-1.335
192.255688,-1.844,-6.958,-1.426
192.265405,-1.726,-7.66,-1.51
192.275122,-1.687,-7.549,-1.69
192.284839,-1.608,-7.431,-1.908
192.294556,-1.451,-7.694,-1.994
192.304273,-1.412,-7.422,-2.185
192.31399,-1.373,-7.349,-2.371
192.323707,-1.373,-7.747,-2.601
192.333424,-1.412,-8.376,-2.871
192.343141,-1.569,-8.501,-3.291
192.352858,-1.648,-8.681,-3.403
192.362575,-1.648,-8.951,-3.45
192.372292,-1.53,-9.208,-3.575
192.381983,-1.451,-9.717,-3.625
192.391674,-1.334,-9.794,-3.639
192.401365,-1.216,-10.544,-4.13
192.411056,-1.098,-11.503,-4.339
192.420747,-1.02,-11.181,-4.361
192.430438,-0.902,-11.251,-4.414
192.440129,-0.785,-11.201,-4.245
192.44982,-0.667,-11.33,-4.189
192.459511,-0.51,-11.524,-4.223
192.469202,-0.471,-11.878,-4.245
192.478893,-0.431,-12.612,-4.375
192.488584,-0.431,-12.246,-4.191
192.498275,-0.392,-11.676,-3.811
192.507966,-0.235,-11.087,-3.309
192.517669,-0.078,-10.403,-2.671
192.527372,0.118,-10.449,-2.639
192.537075,0.235,-11.589,-2.721
192.546778,0.157,-11.278,-2.905
192.556481,0.196,-12.246,-3.514
192.566184,0,-12.323,-3.527
192.575887,-0.039,-12.096,-3.686
192.58559,-0.078,-11.51,-3.623
192.595293,-0.078,-11.014,-3.496
192.604996,-0.078,-10.378,-3.264
192.614699,-0.078,-9.608,-2.889
192.624402,0,-9.224,-2.582
192.634105,0.039,-8.819,-2.392
192.643805,0.078,-8.635,-2.08
192.653505,0.078,-8.721,-1.817
192.663205,-0.039,-8.71,-1.655
192.672905,-0.157,-8.628,-1.442
192.682605,-0.314,-8.262,-1.258
192.692305,-0.471,-8.315,-1.187
192.702005,-0.667,-8.353,-1.194
192.711705,-0.667,-8.353,-1.194
192.721405,-0.745,-8.178,-1.283
192.731105,-0.863,-7.849,-1.344
192.740805,-0.863,-7.603,-1.381
192.750505,-0.824,-7.422,-1.508
192.760205,-0.785,-7.408,-1.585
192.769905,-0.785,-7.26,-1.519
192.779551,-0.745,-6.944,-1.503
192.789197,-0.745,-7.331,-1.571
192.798843,-0.745,-7.703,-1.717
192.808489,-0.785,-7.681,-2.071
192.818135,-0.902,-7.885,-2.267
192.827781,-0.941,-8.36,-2.51
192.837427,-0.981,-8.263,-2.612
192.847073,-1.02,-7.901,-2.628
192.856719,-1.02,-7.883,-2.505
192.866365,-1.02,-7.876,-2.544
192.876011,-0.981,-8.242,-2.728
192.885657,-0.981,-8.892,-2.882
192.895303,-0.981,-9.412,-3.094
192.904949,-0.941,-9.644,-3.134
192.914595,-0.902,-9.799,-3.162
192.924187,-0.902,-10.121,-3.139
192.933779,-0.941,-10.205,-3.114
192.943371,-0.981,-10.894,-3.275
192.952963,-1.02,-11.698,-3.457
192.962555,-1.098,-11.751,-3.386
192.972147,-1.138,-11.785,-3.193
192.981739,-1.138,-11.794,-2.916
192.991331,-1.177,-11.982,-2.75
193.000923,-1.255,-12.621,-2.743
193.010515,-1.491,-13.857,-2.961
193.020107,-1.608,-14.157,-2.616
193.029699,-1.726,-13.598,-2.398
193.039291,-1.922,-13.132,-1.877
193.048883,-2.079,-12.382,-1.387
193.058453,-2.314,-11.555,-0.882
193.068023,-2.471,-10.828,-0.714
193.077593,-2.589,-11.328,-1.041
193.087163,-2.903,-11.212,-1.021
193.096733,-3.02,-10.785,-1.185
193.106303,-3.177,-10.501,-1.214
193.115873,-3.295,-10.146,-1.192
193.125443,-3.334,-9.96,-1.119
193.135013,-3.295,-9.889,-1.067
193.144583,-3.217,-9.833,-0.937
193.154153,-3.06,-9.717,-0.917
193.163723,-2.942,-9.698,-0.794
193.173293,-2.785,-9.596,-0.696
193.182841,-2.707,-9.378,-0.578
193.192389,-2.55,-9.308,-0.526
193.201937,-2.432,-9.058,-0.362
193.211485,-2.354,-8.787,-0.315
193.221033,-2.236,-8.626,-0.326
193.230581,-2.04,-8.535,-0.39
193.240129,-1.922,-8.451,-0.415
193.249677,-1.804,-8.276,-0.503
193.259225,-1.648,-8.087,-0.669
193.268773,-1.569,-8.021,-0.817
193.278321,-1.491,-7.847,-0.906
193.287869,-1.412,-7.619,-1.065
193.297417,-1.294,-7.36,-1.178
193.306965,-1.216,-7.185,-1.267
193.316499,-1.138,-7.022,-1.517
193.326033,-1.059,-6.944,-1.503
193.335567,-1.02,-6.963,-1.626
193.345101,-1.02,-7.072,-1.685
193.354635,-1.059,-7.385,-1.94
193.364169,-1.098,-7.747,-1.924
193.373703,-1.098,-7.867,-2.144
193.383237,-1.098,-8.092,-2.223
193.392771,-1.138,-8.349,-2.348
193.402305,-1.216,-8.89,-2.444
193.411839,-1.334,-9.365,-2.687
193.421373,-1.451,-9.86,-2.814
193.430907,-1.53,-10.549,-2.975
193.440441,-1.608,-10.769,-2.855
193.449997,-1.608,-10.692,-2.841
193.459553,-1.53,-11.303,-2.989
193.469109,-1.451,-12.019,-2.996
193.478665,-1.334,-12.214,-2.791
193.488221,-1.216,-12.28,-2.643
193.497777,-1.059,-12.303,-2.289
193.507333,-0.941,-12.375,-2.102
193.516889,-0.824,-13,-2.173
193.526445,-0.745,-13.607,-2.12
193.536001,-0.588,-13.782,-2.032
193.545557,-0.471,-13.391,-1.764
193.555113,-0.353,-12.621,-1.389
193.564669,-0.157,-12.132,-1.223
193.574242,-0.078,-11.909,-0.905
193.583815,0.118,-11.15,-0.692
193.593388,0.314,-11.18,-0.976
193.602961,0.471,-10.762,-0.862
193.612534,0.745,-11.01,-1.264
193.622107,0.902,-10.855,-1.237
193.63168,1.059,-10.512,-1.376
193.641253,1.138,-10.498,-1.453
193.650826,1.177,-10.492,-1.491
193.660399,1.255,-10.562,-1.544
193.669972,1.216,-10.201,-1.56
193.679545,1.177,-9.983,-1.442
193.689118,1.059,-9.603,-1.335
193.698691,0.863,-9.23,-1.189
193.708279,0.706,-8.992,-1.187
193.717867,0.471,-8.651,-1.087
193.727455,0.275,-8.381,-1.04
193.737043,0.118,-8.078,-0.946
193.746631,-0.039,-7.762,-0.931
193.756219,-0.157,-7.615,-0.865
193.765807,-0.353,-7.228,-0.797
193.775395,-0.431,-7.151,-0.783
193.784983,-0.51,-7.267,-0.803
193.794571,-0.628,-7.415,-0.869
193.804159,-0.706,-7.626,-1.026
193.813747,-0.745,-7.703,-1.04
193.823335,-0.745,-7.697,-1.078
193.832923,-0.785,-7.658,-1.071
193.842522,-0.785,-7.517,-0.967
193.852121,-0.785,-7.356,-0.978
193.86172,-0.745,-7.619,-1.065
193.871319,-0.824,-7.619,-1.065
193.880918,-0.824,-7.626,-1.026
193.890517,-0.863,-7.987,-1.01
193.900116,-0.902,-8.49,-1.099
193.909715,-0.981,-9.199,-1.144
193.919314,-1.059,-9.848,-1.298
193.928913,-1.177,-10.621,-1.435
193.938512,-1.334,-11.246,-1.505
193.948111,-1.451,-11.589,-1.366
193.95771,-1.53,-11.507,-1.153
193.967309,-1.726,-11.739,-1.194
193.97696,-1.844,-12.589,-1.343
193.986611,-1.961,-13.1,-1.155
193.996262,-2.001,-13.082,-1.032
194.005913,-2.079,-13.148,-0.884
194.015564,-2.079,-13.516,-0.83
194.025215,-2.079,-14.032,-0.841
194.034866,-2.157,-14.534,-0.93
194.044517,-2.197,-14.952,-1.043
194.054168,-2.275,-15.241,-1.214
194.063819,-2.275,-14.643,-0.989
194.07347,-2.275,-13.498,-0.707
194.083121,-2.197,-12.223,-0.482
194.092772,-2.118,-11.053,-0.117
194.102465,-2.04,-10.248,0.065
194.112158,-1.961,-10.451,-0.369
194.121851,-2.079,-10.373,-0.355
194.131544,-2.079,-10.26,-0.773
194.141237,-2.275,-10.021,-0.771
194.15093,-2.393,-9.726,-0.639
194.160623,-2.511,-9.505,-0.76
194.170316,-2.589,-9.646,-0.864
194.180009,-2.628,-9.814,-0.814
194.189702,-2.667,-9.66,-0.787
194.199395,-2.628,-9.371,-0.617
194.209088,-2.589,-9.051,-0.401
194.218781,-2.511,-8.787,-0.315
194.228474,-2.432,-8.749,-0.308
194.238193,-2.393,-8.601,-0.242
194.247912,-2.197,-8.337,-0.156
194.257631,-2.079,-7.99,-0.094
194.26735,-1.922,-7.783,-0.138
194.277069,-1.804,-7.64,-0.272
194.286788,-1.726,-7.535,-0.413
194.296507,-1.648,-7.392,-0.547
194.306226,-1.53,-7.249,-0.681
194.315945,-1.412,-7.331,-0.894
194.325664,-1.255,-7.303,-1.049
194.335383,-1.177,-7.335,-1.094
194.345102,-0.941,-6.994,-0.994
194.354821,-0.745,-6.544,-0.835
194.36454,-0.628,-6.956,-0.987
194.374268,-0.628,-8.017,-1.294
194.383996,-0.706,-8.862,-1.921
194.393724,-0.902,-9.112,-2.085
194.403452,-1.02,-9.015,-2.187
194.41318,-1.138,-9.328,-2.441
194.422908,-1.373,-9.624,-2.573
194.432636,-1.608,-9.906,-2.782
194.442364,-1.765,-9.796,-2.723
194.452092,-1.961,-9.431,-2.539
194.46182,-2.079,-9.617,-2.612
194.471548,-2.314,-10.028,-2.764
194.481276,-2.471,-9.983,-2.796
194.491004,-2.628,-10.053,-2.848
194.500732,-2.707,-10.637,-3.15
194.510507,-2.707,-11.23,-3.175
194.520282,-2.746,-11.142,-3
194.530057,-2.589,-10.308,-2.534
194.539832,-2.314,-10.192,-2.514
194.549607,-2.118,-11.428,-2.732
194.559382,-2.001,-13.255,-3.214
194.569157,-2.001,-15.091,-4.095
194.578932,-1.922,-15.668,-4.436
194.588707,-1.687,-14.587,-4.245
194.598482,-1.451,-13.441,-3.963
194.608257,-1.177,-12.194,-3.584
194.618032,-0.824,-11.299,-3.466
194.627807,-0.51,-10.919,-3.359
194.637603,-0.157,-10.376,-3.502
194.647399,0.039,-11.083,-3.786
194.657195,0.235,-10.978,-3.927
194.666991,0.471,-10.662,-3.911
194.676787,0.745,-10.199,-3.83
194.686583,0.902,-9.974,-3.75
194.696379,0.941,-9.376,-3.525
194.706175,0.863,-8.533,-3.337
194.715971,0.745,-8.174,-3.114
194.725767,0.471,-7.506,-2.837
194.735563,0.235,-6.999,-2.549
194.745359,-0.039,-6.763,-2.308
194.755155,-0.235,-6.326,-2.071
194.764951,-0.51,-6.347,-1.956
194.77475,-0.667,-6.931,-2.258
194.784549,-0.863,-7.517,-2.321
194.794348,-1.02,-7.36,-2.533
194.804147,-1.255,-7.508,-2.599
194.813946,-1.373,-7.424,-2.624
194.823745,-1.412,-6.992,-2.587
194.833544,-1.451,-6.986,-2.626
194.843343,-1.451,-7.004,-2.749
194.853142,-1.491,-6.881,-2.767
194.862941,-1.53,-6.372,-2.717
194.87274,-1.412,-5.972,-2.726
194.882539,-1.412,-6.165,-2.76
194.892338,-1.334,-6.583,-2.874
194.902137,-1.177,-6.833,-3.037
194.911924,-0.902,-7.276,-3.235
194.921711,-0.745,-7.251,-3.151
194.931498,-0.51,-7.161,-3.214
194.941285,-0.275,-7.592,-3.251
194.951072,-0.275,-7.779,-3.323
194.960859,-0.235,-8.081,-3.416
194.970646,-0.471,-8.515,-3.214
194.980433,-0.785,-8.724,-2.932
194.99022,-1.098,-9.724,-2.91
195.000007,-1.491,-11.508,-3.184
195.009794,-1.961,-12.853,-3.461
195.019581,-2.118,-14.269,-3.791
195.029368,-2.236,-14.405,-3.695
195.039155,-2.157,-14.278,-3.513
195.048956,-2.197,-14.566,-3.684
195.058757,-2.432,-15.464,-4.24
195.068558,-2.628,-16.361,-4.797
195.078359,-2.667,-15.859,-4.708
195.08816,-2.785,-12.98,-3.643
195.097961,-2.628,-10.867,-2.753
195.107762,-2.903,-10.512,-2.053
195.117563,-3.177,-9.603,-1.335
195.127364,-3.373,-8.78,-1.03
195.137165,-3.609,-9.846,-0.86
195.146966,-3.962,-10.246,-0.851
195.156767,-4.001,-11.019,-0.987
195.166568,-3.962,-10.769,-0.823
195.176364,-3.766,-10.56,-0.428
195.18616,-3.57,-10.376,-0.117
195.195956,-3.177,-10.944,-0.058
195.205752,-2.903,-11.484,-0.153
195.215548,-2.471,-11.437,-0.423
195.225344,-2.04,-11.144,-0.73
195.23514,-2.001,-10.735,-1.017
195.244936,-1.961,-10.108,-1.185
195.254732,-2.118,-9.455,-1.269
195.264528,-2.197,-9.055,-1.278
195.274324,-2.275,-8.546,-1.228
195.28412,-2.157,-8.083,-1.146
195.293916,-1.961,-7.819,-1.06
195.303712,-1.648,-7.549,-1.012
195.313491,-1.294,-7.49,-1.121
195.32327,-1.02,-7.328,-1.133
195.333049,-0.706,-7.069,-1.247
195.342828,-0.51,-7.042,-1.401
195.352607,-0.392,-6.719,-1.424
195.362386,-0.235,-6.64,-1.649
195.372165,-0.275,-6.451,-1.815
195.381944,-0.196,-6.142,-1.76
195.391723,-0.118,-5.665,-1.756
195.401502,-0.118,-6.242,-2.096
195.411281,-0.275,-6.979,-2.664
195.42106,-0.392,-8.024,-3.287
195.430839,-0.628,-9.017,-3.98
195.440618,-0.863,-9.69,-4.457
195.450382,-1.02,-9.867,-4.807
195.460146,-1.294,-9.572,-4.675
195.46991,-1.412,-8.915,-4.559
195.479674,-1.608,-8.645,-4.512
195.489438,-1.765,-8.915,-4.559
195.499202,-1.883,-8.992,-4.573
195.508966,-1.883,-9.467,-4.816
195.51873,-1.922,-10.722,-5.157
195.528494,-2.001,-10.715,-5.195
195.538258,-1.844,-10.374,-5.095
195.548022,-1.687,-10.26,-4.836
195.557786,-1.491,-10.069,-4.564
195.56755,-1.334,-10.599,-4.498
195.577314,-1.294,-11.624,-4.559
195.587075,-1.412,-12.892,-4.822
195.596836,-1.569,-12.821,-4.77
195.606597,-1.648,-12.778,-4.563
195.616358,-1.765,-12.433,-4.263
195.626119,-1.726,-12.767,-4.402
195.63588,-1.648,-12.31,-4.282
195.645641,-1.255,-12.617,-4.575
195.655402,-0.863,-12.192,-4.5
195.665163,-0.235,-11.187,-4.323
195.674924,0.51,-10.506,-4.123
195.684685,1.098,-10.133,-3.977
195.694446,1.412,-9.883,-3.814
195.704207,1.53,-9.376,-3.525
195.71395,1.491,-8.856,-3.314
195.723693,1.294,-8.433,-3.001
195.733436,0.981,-7.906,-2.828
195.743179,0.667,-7.438,-2.546
195.752922,0.353,-7.117,-2.33
195.762665,0.078,-6.706,-2.178
195.772408,-0.196,-6.488,-2.06
195.782151,-0.471,-6.417,-2.008
195.791894,-0.628,-5.936,-1.803
195.801637,-0.824,-5.717,-1.685
195.81138,-1.098,-6.361,-1.878
195.821123,-1.451,-7.176,-2.221
195.830866,-1.726,-7.715,-2.555
195.840609,-1.922,-8.151,-2.792
195.850318,-2.04,-8.401,-2.955
195.860027,-2.001,-8.342,-3.064
195.869736,-1.961,-7.885,-2.944
195.879445,-1.804,-7.41,-2.701
195.889154,-1.687,-7.14,-2.653
195.898863,-1.687,-7.108,-2.608
195.908572,-1.608,-7.185,-2.621
195.918281,-1.726,-7.783,-2.846
195.92799,-1.844,-8.101,-2.623
195.937699,-1.726,-7.56,-2.528
195.947408,-1.569,-7.504,-2.399
195.957117,-1.334,-7.563,-2.289
195.966826,-1.138,-7.872,-2.344
195.976535,-0.981,-8.303,-2.38
195.986199,-0.863,-8.678,-2.287
195.995863,-0.902,-9.233,-2.305
196.005527,-1.177,-10.321,-2.457
196.015191,-1.569,-11.323,-2.873
196.024855,-1.883,-13.566,-3.707
196.034519,-2.314,-14.989,-3.997
196.044183,-2.354,-13.996,-3.981
196.053847,-2.275,-13.964,-3.936
196.063511,-2.275,-14.23,-3.784
196.073175,-2.275,-14.434,-3.979
196.082839,-2.275,-14.564,-3.922
196.092503,-2.275,-14.078,-3.518
196.102167,-2.236,-12.75,-2.686
196.111831,-2.314,-11.019,-1.664
196.121489,-2.432,-10.235,-0.689
196.131147,-2.667,-9.628,-0.065
196.140805,-2.864,-9.601,0.458
196.150463,-2.942,-10.103,0.37
196.160121,-3.138,-11.398,0.261
196.169779,-3.217,-11.514,0.24
196.179437,-3.099,-11.307,0.197
196.189095,-2.981,-11.314,0.236
196.198753,-2.785,-11.416,0.138
196.208411,-2.511,-11.396,0.022
196.218069,-2.157,-11.234,0.011
196.227727,-1.804,-11.034,0.006
196.237385,-1.491,-10.834,0.002
196.247027,-1.255,-10.544,-0.067
196.256669,-1.098,-10.157,0.001
196.266311,-1.02,-9.662,0.129
196.275953,-0.981,-9.339,0.106
196.285595,-0.981,-8.848,0.033
196.295237,-0.981,-8.442,-0.015
196.304879,-1.059,-8.196,-0.051
196.314521,-1.098,-7.803,-0.022
196.324163,-1.138,-7.365,-0.024
196.333805,-1.177,-7.474,-0.083
196.343447,-1.334,-7.878,-0.274
196.353089,-1.373,-7.953,-0.526
196.362731,-1.412,-7.512,-0.767
196.372373,-1.373,-7.469,-1.237
196.381992,-1.53,-7.249,-1.358
196.391611,-1.608,-6.558,-1.435
196.40123,-1.569,-6.254,-1.581
196.410849,-1.687,-6.413,-1.808
196.420468,-1.687,-7.338,-2.21
196.430087,-1.648,-7.729,-2.478
196.439706,-1.451,-8.21,-2.682
196.449325,-1.334,-8.608,-2.912
196.458944,-1.255,-9.051,-3.11
196.468563,-1.294,-9.315,-3.196
196.478182,-1.373,-9.449,-3.339
196.487801,-1.53,-9.681,-3.38
196.49742,-1.569,-9.315,-3.196
196.507039,-1.53,-9.769,-3.555
196.51664,-1.608,-11.058,-3.702
196.526241,-1.608,-11.514,-3.823
196.535842,-1.412,-11.792,-3.832
196.545443,-1.294,-12.162,-3.539
196.555044,-1.216,-12.282,-3.082
196.564645,-1.216,-12.287,-2.605
196.574246,-1.177,-13.596,-2.636
196.583847,-1.216,-15.741,-2.895
196.593448,-1.412,-16.264,-2.868
196.603049,-1.412,-15.914,-3.045
196.61265,-1.451,-15.277,-2.813
196.622251,-1.255,-14.198,-2.384
196.631852,-1.138,-12.4,-2.187
196.641453,-0.902,-12.36,-2.418
196.651066,-0.706,-11.889,-2.375
196.660679,-0.471,-11.055,-2.587
196.670292,-0.157,-10.624,-2.55
196.679905,0.157,-10.424,-2.555
196.689518,0.549,-10.083,-2.455
196.699131,0.824,-9.51,-2.314
196.708744,1.02,-8.958,-2.057
196.718357,1.138,-8.29,-1.78
196.72797,1.177,-7.467,-1.476
196.737583,1.098,-6.888,-1.374
196.747196,0.902,-6.747,-1.269
196.756809,0.745,-6.547,-1.274
196.766422,0.51,-6.404,-1.408
196.776043,0.314,-6.222,-1.535
196.785664,0.118,-6.286,-1.626
196.795285,0,-6.381,-1.762
196.804906,-0.078,-6.361,-1.878
196.814527,-0.235,-6.347,-1.956
196.824148,-0.314,-6.436,-2.131
196.833769,-0.392,-6.647,-2.287
196.84339,-0.471,-6.686,-2.294
196.853011,-0.51,-6.601,-2.319
196.862632,-0.549,-6.376,-2.24
196.872253,-0.588,-6.454,-2.253
196.881874,-0.667,-6.826,-2.399
196.891495,-0.706,-7.038,-2.555
196.901116,-0.785,-7.54,-2.644
196.910737,-0.863,-7.799,-2.53
196.920358,-0.863,-8.108,-2.585
196.929979,-0.941,-8.797,-2.746
196.9396,-1.059,-9.351,-2.764
196.949221,-1.02,-9.846,-2.891
196.958842,-1.177,-10.24,-2.921
196.968463,-1.255,-10.742,-3.009
196.978084,-1.294,-11.039,-2.903
196.987705,-1.294,-10.983,-2.773
196.997326,-1.334,-11.903,-2.975
197.006947,-1.451,-12.812,-3.016
197.016568,-1.451,-13.289,-3.02
197.026189,-1.451,-13.657,-2.966
197.03581,-1.569,-14.064,-2.918
197.045431,-1.608,-14.837,-3.054
197.055058,-1.726,-14.807,-2.77
197.064685,-1.883,-13.4,-2.164
197.074312,-1.844,-12.225,-1.598
197.083939,-1.883,-11.721,-1.071
197.093566,-2.118,-11.23,-0.467
197.103193,-2.471,-11.366,-0.371
197.11282,-2.864,-11.491,-0.114
197.122447,-3.099,-11.932,-0.551
197.132074,-3.413,-12.293,-0.535
197.141701,-3.452,-11.925,-0.589
197.151328,-3.491,-11.539,-0.521
197.160955,-3.373,-11.307,-0.48
197.170582,-3.256,-11.23,-0.467
197.180248,-3.099,-10.875,-0.444
197.189914,-2.785,-10.489,-0.376
197.19958,-2.55,-10.18,-0.321
197.209246,-2.314,-9.871,-0.267
197.218912,-2.118,-9.376,-0.14
197.228578,-1.922,-8.551,-0.074
197.238244,-1.765,-7.894,0.042
197.24791,-1.648,-7.771,0.024
197.257576,-1.53,-7.578,0.058
197.267242,-1.451,-7.481,-0.044
197.276908,-1.373,-7.362,-0.263
197.286574,-1.334,-7.374,-0.424
197.29624,-1.294,-7.256,-0.642
197.305933,-1.216,-7.119,-0.738
197.315626,-1.255,-6.931,-0.903
197.325319,-1.216,-6.619,-1.088
197.335012,-1.177,-6.463,-1.299
197.344705,-1.138,-6.365,-1.401
197.354398,-1.138,-6.429,-1.492
197.364091,-1.059,-6.442,-1.415
197.373784,-1.02,-6.301,-1.31
197.383477,-1.02,-6.631,-1.249
197.39317,-1.02,-7.017,-1.317
197.402863,-0.981,-7.924,-1.596
197.412556,-0.863,-8.824,-1.914
197.422249,-0.902,-9.646,-2.219
197.431942,-1.02,-10.18,-2.353
197.441644,-1.02,-10.644,-2.434
197.451346,-1.216,-11.242,-2.659
197.461048,-1.412,-11.769,-2.832
197.47075,-1.569,-11.41,-2.609
197.480452,-1.648,-10.933,-2.605
197.490154,-1.687,-11.742,-2.986
197.499856,-1.922,-12.476,-3.116
197.509558,-1.883,-12.635,-3.343
197.51926,-1.804,-12.737,-3.441
197.528962,-1.648,-12.353,-3.134
197.538664,-1.412,-11.935,-3.021
197.548366,-1.216,-12.121,-3.093
197.558068,-1.02,-13.01,-3.25
197.56777,-0.863,-12.485,-2.839
197.577513,-0.863,-11.108,-2.516
197.587256,-0.785,-11.16,-2.446
197.596999,-0.745,-11.33,-2.157
197.606742,-0.431,-10.942,-1.65
197.616485,-0.196,-10.346,-1.864
197.626228,0.157,-11.11,-1.6
197.635971,0.588,-11.419,-1.655
197.645714,0.941,-11.398,-1.771
197.655457,1.334,-11.546,-1.837
197.6652,1.687,-11.591,-1.805
197.674943,1.765,-11.128,-1.723
197.684686,1.922,-10.517,-1.576
197.694429,2.001,-9.996,-1.364
197.704165,1.922,-9.451,-1.069
197.713901,1.844,-8.962,-0.903
197.723637,1.648,-8.383,-0.801
197.733373,1.53,-8.112,-0.753
197.743109,1.334,-7.958,-0.726
197.752845,1.138,-7.674,-0.756
197.762581,0.902,-7.39,-0.785
197.772317,0.667,-7.274,-0.765
197.782053,0.431,-7.19,-0.79
197.791789,0.235,-7.028,-0.801
197.801525,0.118,-7.042,-0.724
197.811261,0.039,-7.113,-0.776
197.820997,-0.078,-7.19,-0.79
197.830733,-0.157,-7.274,-0.765
197.840469,-0.235,-7.281,-0.726
197.850218,-0.275,-7.21,-0.674
197.859967,-0.235,-7.115,-0.538
197.869716,-0.314,-7.167,-0.467
197.879465,-0.353,-7.656,-0.633
197.889214,-0.314,-8.399,-0.485
197.898963,-0.235,-8.753,-0.508
197.908712,-0.275,-9.462,-0.553
197.918461,-0.314,-9.767,-0.408
197.92821,-0.392,-10.223,-0.528
197.937959,-0.549,-10.816,-0.553
197.947708,-0.588,-11.269,-0.473
197.957457,-0.628,-11.816,-0.53
197.967206,-0.628,-12.409,-0.555
197.976948,-0.628,-12.875,-0.398
197.98669,-0.667,-13.184,-0.453
197.996432,-0.706,-13.327,-0.319
198.006174,-0.824,-13.323,-0.119
198.015916,-0.941,-13.382,-0.009
198.025658,-1.098,-13.698,-0.025
198.0354,-1.255,-14.432,-0.155
198.045142,-1.412,-15.152,-0.361
198.054884,-1.491,-15.506,-0.384
198.064626,-1.726,-14.641,0.127
198.074368,-1.765,-13.618,0.427
198.08411,-1.883,-12.9,0.872
198.093852,-2.001,-12.309,1.136
198.103594,-2.118,-11.455,1.485
198.113329,-2.118,-11.2,1.172
198.123064,-2.393,-11.207,1.21
198.132799,-2.432,-11.023,0.845
198.142534,-2.511,-10.848,0.756
198.152269,-2.55,-10.371,0.76
198.162004,-2.628,-10.035,0.66
198.171739,-2.628,-10.162,0.479
198.181474,-2.667,-10.412,0.315
198.191209,-2.589,-10.346,0.167
198.200944,-2.55,-9.939,0.12
198.210679,-2.471,-9.462,0.124
198.220414,-2.393,-9.101,0.108
198.230149,-2.275,-8.649,0.028
198.239884,-2.157,-8.21,0.026
198.249631,-2.04,-7.842,-0.028
198.259378,-1.922,-7.476,0.156
198.269125,-1.883,-7.153,0.133
198.278872,-1.765,-6.953,0.128
198.288619,-1.687,-6.831,0.11
198.298366,-1.648,-6.817,0.033
198.308113,-1.569,-6.81,-0.006
198.31786,-1.491,-6.797,-0.083
198.327607,-1.451,-6.822,-0.167
198.337354,-1.373,-6.885,-0.258
198.347101,-1.255,-6.994,-0.317
198.356848,-1.138,-7.058,-0.408
198.366595,-1.02,-7.097,-0.415
198.376337,-1.098,-7.097,-0.415
198.386079,-0.981,-7.385,-0.585
198.395821,-0.863,-7.796,-0.737
198.405563,-0.902,-8.065,-1.024
198.415305,-0.824,-8.585,-1.235
198.425047,-0.785,-9.305,-1.442
198.434789,-0.824,-9.601,-1.573
198.444531,-0.824,-9.812,-1.73
198.454273,-0.863,-10.101,-1.901
198.464015,-0.902,-10.526,-1.975
198.473757,-0.902,-11.014,-2.141
198.483499,-0.902,-11.235,-2.021
198.493241,-0.941,-11.382,-2.087
198.502983,-0.941,-12.275,-2.443
198.512716,-0.941,-12.703,-2.28
198.522449,-0.902,-12.478,-2.2
198.532182,-0.941,-12.466,-2.039
198.541915,-0.941,-12.455,-1.877
198.551648,-0.902,-13.028,-2.018
198.561381,-0.981,-13.896,-2.291
198.571114,-0.981,-14.746,-2.441
198.580847,-0.981,-14.066,-2.002
198.59058,-0.902,-13.166,-1.684
198.600313,-0.824,-12.543,-1.375
198.610046,-0.745,-12.037,-1.087
198.619779,-0.588,-11.412,-1.016
198.629512,-0.471,-11.071,-0.916
198.639245,-0.431,-10.605,-1.073
198.648952,-0.353,-10.873,-1.36
198.658659,-0.275,-10.519,-1.337
198.668366,-0.196,-10.112,-1.385
198.678073,-0.118,-9.88,-1.344
198.68778,0,-9.937,-1.473
198.697487,0.078,-10.103,-1.662
198.707194,0.196,-9.967,-1.757
198.716901,0.353,-9.735,-1.717
198.726608,0.51,-9.374,-1.732
198.736315,0.628,-9.142,-1.692
198.746022,0.745,-8.826,-1.676
198.755729,0.824,-8.51,-1.66
198.765436,0.902,-8.162,-1.599
198.775143,0.941,-7.924,-1.596
198.784853,0.941,-7.685,-1.594
198.794563,0.981,-7.39,-1.462
198.804273,0.941,-7.235,-1.435
198.813983,0.863,-7.074,-1.446
198.823693,0.785,-6.997,-1.433
198.833403,0.667,-6.926,-1.381
198.843113,0.549,-7.004,-1.394
198.852823,0.471,-7.203,-1.39
198.862533,0.392,-7.294,-1.326
198.872243,0.353,-7.378,-1.301
198.881953,0.314,-7.424,-1.269
198.891663,0.275,-7.431,-1.231
198.901373,0.196,-7.606,-1.142
198.911088,0.078,-8.01,-1.333
198.920803,-0.118,-8.624,-1.242
198.930518,-0.235,-8.701,-1.255
198.940233,-0.353,-8.992,-1.187
198.949948,-0.51,-9.378,-1.255
198.959663,-0.628,-9.803,-1.33
198.969378,-0.745,-10.26,-1.451
198.979093,-0.785,-10.723,-1.532
198.988808,-0.745,-11.264,-1.628
198.998523,-0.745,-11.426,-1.616
199.008238,-0.667,-11.58,-1.644
199.017953,-0.628,-12.146,-1.823
199.027668,-0.706,-12.778,-1.855
199.037383,-0.667,-12.759,-1.732
199.047082,-0.667,-12.612,-1.666
199.056781,-0.549,-12.825,-1.584
199.06648,-0.392,-13.757,-1.948
199.076179,-0.353,-15.25,-2.291
199.085878,-0.275,-15.843,-2.316
199.095577,-0.157,-14.73,-2.079
199.105276,-0.078,-13.168,-1.446
199.114975,-0.078,-11.728,-1.032
199.124674,0.078,-10.855,-0.56
199.134373,0.118,-10.416,-0.562
199.144072,0.039,-10.578,-0.551
199.153771,-0.039,-10.671,-0.926
199.16347,-0.196,-10.991,-1.141
199.173169,-0.431,-11.01,-1.264
199.182883,-0.628,-10.648,-1.28
199.192597,-0.863,-10.473,-1.369
199.202311,-1.02,-10.667,-1.403
199.212025,-1.098,-10.628,-1.396
199.221739,-1.059,-10.101,-1.223
199.231453,-1.138,-9.567,-1.089
199.241167,-1.255,-9.149,-0.976
199.250881,-1.334,-8.724,-0.901
199.260595,-1.373,-8.485,-0.899
199.270309,-1.334,-8.156,-0.96
199.280023,-1.255,-7.692,-0.878
199.289737,-1.177,-7.151,-0.783
199.299451,-1.098,-6.938,-0.865
199.30918,-0.981,-6.685,-0.94
199.318909,-0.863,-6.506,-0.828
199.328638,-0.706,-6.685,-0.94
199.338367,-0.471,-6.858,-1.09
199.348096,-0.275,-7.069,-1.247
199.357825,-0.118,-7.326,-1.371
199.367554,-0.039,-7.403,-1.385
199.377283,0.118,-7.494,-1.321
199.387012,0.118,-7.444,-1.153
199.396741,0.118,-7.381,-1.062
199.40647,0.118,-7.592,-1.219
199.416199,0.118,-7.967,-1.126
199.425928,0.118,-8.167,-1.121
199.435657,0,-8.49,-1.099
199.445374,-0.118,-9.094,-1.285
199.455091,-0.235,-9.983,-1.442
199.464808,-0.431,-10.383,-1.432
199.474525,-0.549,-10.487,-1.291
199.484242,-0.628,-10.764,-1.301
199.493959,-0.785,-11.396,-1.332
199.503676,-0.981,-11.932,-1.228
199.513393,-1.059,-12.171,-1.23
199.52311,-1.02,-12.589,-1.343
199.532827,-1.138,-12.564,-1.259
199.542544,-1.138,-12.321,-1.057
199.552261,-1.059,-12.468,-1.123
199.561978,-0.941,-13.118,-1.277
199.571695,-0.981,-14.109,-1.532
199.581387,-1.098,-14.939,-1.798
199.591079,-1.059,-15.32,-1.666
199.600771,-1.216,-14.461,-1.793
199.610463,-1.373,-13.443,-1.693
199.620155,-1.334,-12.703,-1.603
199.629847,-1.216,-11.151,-1.369
199.639539,-0.824,-10.214,-1.482
199.649231,-0.549,-9.944,-1.435
199.658923,-0.275,-10.353,-1.826
199.668615,-0.157,-10.114,-1.823
199.678307,-0.078,-9.501,-1.914
199.687999,-0.078,-9.428,-2.101
199.697691,-0.118,-9.558,-2.044
199.707383,-0.235,-9.924,-2.228
199.717051,-0.353,-10.096,-2.378
199.726719,-0.51,-9.712,-2.071
199.736387,-0.628,-9.01,-1.987
199.746055,-0.745,-8.54,-1.944
199.755723,-0.824,-8.742,-1.701
199.765391,-0.863,-8.351,-1.433
199.775059,-0.824,-7.69,-1.117
199.784727,-0.941,-7.753,-1.208
199.794395,-1.138,-8.094,-1.308
199.804063,-1.138,-8.051,-1.101
199.813731,-1.294,-7.781,-1.053
199.823399,-1.451,-7.835,-1.421
199.833067,-1.569,-7.912,-1.435
199.842735,-1.53,-7.76,-1.169
199.852409,-1.569,-6.776,-0.876
199.862083,-1.608,-6.354,-1.24
199.871757,-1.726,-7.122,-1.176
199.881431,-1.726,-7.342,-1.056
199.891105,-1.726,-7.226,-1.035
199.900779,-1.687,-7.599,-1.181
199.910453,-1.608,-8.201,-0.928
199.920127,-1.491,-7.967,-1.126
199.929801,-1.373,-8.069,-1.224
199.939475,-1.294,-8.778,-1.269
199.949149,-1.334,-9.287,-1.319
199.958823,-1.373,-9.619,-1.696
199.968497,-1.373,-10.26,-2.128
199.978163,-1.255,-10.96,-2.45
199.987829,-1.334,-11.421,-2.771
199.997495,-1.373,-11.939,-3.221
200.007161,-1.412,-12.176,-3.461
200.016827,-1.608,-12.148,-3.616
200.026493,-1.765,-11.78,-3.67
200.036159,-1.922,-11.36,-3.795
200.045825,-2.079,-11.583,-4.114
200.055491,-2.236,-11.801,-4.232
200.065157,-2.354,-11.889,-4.407
200.074823,-2.432,-12.312,-4.72
200.084489,-2.471,-13.019,-5.004
200.094155,-2.55,-12.885,-4.861
200.103821,-2.667,-11.71,-4.295
200.113488,-2.667,-10.321,-3.812
200.123155,-2.471,-9.174,-3.091
200.132822,-2.393,-7.708,-1.917
200.142489,-2.157,-6.415,-0.892
200.152156,-1.922,-6.324,-0.279
200.161823,-1.765,-7.724,-0.247
200.17149,-1.765,-9.353,0.183
200.181157,-1.726,-10.723,0.499
200.190824,-1.726,-11.368,1.222
200.200491,-1.648,-11.85,1.695
200.210158,-1.294,-12.859,1.995
200.219825,-1.02,-14.097,2.015
200.229492,-0.824,-14.538,2.256
200.239159,-0.588,-14.331,2.213
200.24885,-0.392,-13.993,2.552
200.258541,-0.471,-13.456,2.447
200.268232,-0.588,-13.125,2.147
200.277923,-0.785,-12.618,1.758
200.287614,-0.785,-12.052,1.261
200.297305,-0.824,-11.287,0.758
200.306996,-0.745,-10.4,0.476
200.316687,-0.628,-9.367,0.26
200.326378,-0.51,-7.992,0.144
200.336069,-0.392,-6.937,-0.188
200.34576,-0.471,-6.567,-0.481
200.355451,-0.628,-6.803,-0.722
200.365142,-0.824,-6.935,-1.103
200.374845,-0.824,-6.817,-1.322
200.384548,-0.824,-6.738,-1.547
200.394251,-0.863,-6.51,-1.706
200.403954,-0.902,-6.367,-1.84
200.413657,-0.941,-6.204,-2.09
200.42336,-1.177,-6.117,-2.353
200.433063,-1.53,-6.649,-2.726
200.442766,-1.726,-7.008,-2.949
200.452469,-1.922,-6.974,-3.142
200.462172,-1.961,-6.863,-3.321
200.471875,-1.961,-6.849,-3.398
200.481578,-1.961,-7.208,-3.621
200.491281,-2.118,-7.324,-3.642
200.500984,-2.393,-7.342,-3.764
200.510696,-2.707,-7.722,-3.871
200.520408,-3.138,-8.604,-4.066
200.53012,-3.413,-9.84,-4.284
200.539832,-3.53,-10.724,-4.241
200.549544,-3.373,-11.067,-4.102
200.559256,-3.06,-11.814,-4.154
200.568968,-2.864,-12.801,-4.209
200.57868,-2.628,-14.157,-4.647
200.588392,-2.589,-15.398,-5.065
200.598104,-2.667,-15.553,-5.092
200.607816,-2.471,-14.982,-5.39
200.617528,-2.314,-14.371,-5.243
200.62724,-1.922,-13.301,-5.213
200.636952,-1.138,-12.603,-5.329
200.64665,-0.392,-11.746,-5.218
200.656348,0.549,-10.44,-4.948
200.666046,1.255,-9.388,-5.041
200.675744,1.569,-9.342,-5.073
200.685442,1.608,-8.826,-5.062
200.69514,1.608,-8.24,-4.998
200.704838,1.451,-7.815,-4.923
200.714536,1.177,-7.577,-4.921
200.724234,0.902,-7.243,-4.782
200.733932,0.628,-6.781,-4.462
200.74363,0.51,-6.179,-4.037
200.753328,0.314,-5.706,-3.555
200.763026,0.157,-5.325,-3.01
200.772724,0.078,-5.186,-2.667
200.782403,-0.196,-5.402,-2.347
200.792082,-0.431,-5.822,-2.222
200.801761,-0.628,-6.622,-2.203
200.81144,-0.863,-7.513,-2.121
200.821119,-1.02,-8.242,-2.051
200.830798,-1.177,-8.831,-1.876
200.840477,-1.255,-9.451,-1.746
200.850156,-1.138,-9.801,-1.569
200.859835,-0.941,-9.928,-1.751
200.869514,-0.981,-10.139,-1.907
200.879193,-0.981,-10.112,-2.062
200.888872,-1.216,-9.487,-1.992
200.898551,-1.412,-8.869,-1.883
200.90823,-1.569,-8.476,-1.853
200.917927,-1.53,-8.174,-1.76
200.927624,-1.491,-8.108,-1.908
200.937321,-1.255,-8.565,-2.028
200.947018,-1.059,-8.758,-2.062
200.956715,-0.863,-8.917,-2.289
200.966412,-0.981,-8.91,-2.328
200.976109,-1.059,-8.542,-2.382
200.985806,-1.216,-8.272,-2.335
200.995503,-1.451,-8.515,-2.537
201.0052,-1.648,-9.022,-2.826
201.014897,-1.804,-9.637,-3.173
201.024594,-1.961,-9.81,-3.323
201.034291,-2.079,-9.978,-3.273
201.043987,-2.118,-10.38,-3.025
201.053683,-2.157,-10.858,-3.03
201.063379,-2.118,-12.21,-3.268
201.073075,-2.001,-12.81,-3.254
201.082771,-2.001,-12.9,-3.191
201.092467,-1.883,-13.28,-3.298
201.102163,-1.804,-14.507,-3.793
201.111859,-1.922,-16.055,-4.504
201.121555,-2.079,-16.734,-4.942
201.131251,-2.236,-14.316,-4.197
201.140947,-2.275,-11.126,-3.316
201.150643,-2.197,-9.862,-2.575
201.160339,-2.236,-9.171,-1.976
201.170035,-2.432,-8.053,-1.54
201.179722,-2.354,-8.272,-1.658
201.189409,-2.511,-8.84,-1.598
201.199096,-2.628,-9.778,-1.923
201.208783,-2.707,-10.101,-1.901
201.21847,-2.746,-10.103,-1.662
201.228157,-2.667,-10.208,-1.521
201.237844,-2.55,-10.673,-1.364
201.247531,-2.314,-10.739,-1.216
201.257218,-2.001,-10.117,-0.908
201.266905,-1.648,-9.585,-0.535
201.276592,-1.412,-9.38,-0.34
201.286279,-1.373,-9.464,-0.315
201.295966,-1.373,-9.669,-0.51
201.305653,-1.53,-9.776,-0.808
201.315326,-1.687,-9.792,-1.169
201.324999,-1.687,-9.451,-1.069
201.334672,-1.922,-8.953,-1.18
201.344345,-1.961,-8.456,-1.292
201.354018,-1.961,-7.881,-1.39
201.363691,-1.883,-7.422,-1.508
201.373364,-1.687,-7.226,-1.712
201.383037,-1.491,-7.238,-1.874
201.39271,-1.216,-7.12,-2.092
201.402383,-1.02,-6.913,-2.135
201.412056,-0.863,-6.506,-2.183
201.421729,-0.785,-5.952,-2.165
201.431402,-0.706,-5.899,-2.235
201.441075,-0.706,-6.163,-2.321
201.450754,-0.667,-6.786,-2.63
201.460433,-0.667,-6.361,-2.555
201.470112,-0.471,-6.308,-2.626
201.479791,-0.275,-6.983,-2.864
201.48947,-0.235,-7.101,-2.646
201.499149,-0.039,-7.204,-2.744
201.508828,0.118,-8.063,-2.617
201.518507,0.078,-8.701,-2.61
201.528186,-0.078,-9.544,-2.798
201.537865,-0.353,-10.967,-3.089
201.547544,-0.745,-12.428,-3.386
201.557223,-1.059,-13.512,-3.338
201.566902,-1.373,-13.489,-3.016
201.576581,-1.451,-14.398,-3.057
201.58626,-1.373,-16.123,-3.44
201.595938,-1.255,-17.766,-4.288
201.605616,-1.098,-18.543,-4.624
201.615294,-0.863,-17.195,-4.585
201.624972,-0.745,-15.921,-4.361
201.63465,-0.902,-14.73,-4.111
201.644328,-0.667,-13.376,-4.111
201.654006,-0.471,-12.235,-4.029
201.663684,-0.235,-10.505,-3.446
201.673362,0.471,-10.271,-3.643
201.68304,1.138,-10.271,-3.643
201.692718,1.804,-9.667,-3.457
201.702396,2.393,-9.274,-3.428
201.712074,2.942,-9.024,-3.264
201.721752,2.942,-8.742,-3.055
201.731451,2.667,-8.272,-3.012
201.74115,2.667,-7.449,-2.708
201.750849,2.432,-7.817,-2.653
201.760548,2.118,-7.472,-2.353
201.770247,1.922,-7.319,-2.087
201.779946,1.726,-6.76,-1.869
201.789645,1.412,-7.244,-1.835
201.799344,0.863,-8.088,-2.024
201.809043,0.471,-8.369,-2.233
201.818742,0.196,-8.083,-2.501
201.828441,-0.039,-7.831,-2.576
201.83814,-0.157,-7.74,-2.639
201.847839,-0.314,-7.695,-2.671
201.857533,-0.392,-7.558,-2.767
201.867227,-0.392,-7.474,-2.792
201.876921,-0.471,-7.415,-2.901
201.886615,-0.549,-7.381,-3.094
201.896309,-0.549,-7.386,-3.294
201.906003,-0.588,-7.211,-3.383
201.915697,-0.628,-6.913,-3.489
201.925391,-0.667,-6.629,-3.519
201.935085,-0.667,-6.247,-3.651
201.944779,-0.667,-6.143,-3.792
201.954473,-0.628,-6,-3.926
201.964167,-0.667,-6.415,-4.278
201.973861,-0.785,-6.184,-4.237
201.983555,-0.824,-6.093,-4.301
201.993267,-0.981,-6.465,-4.446
202.002979,-1.294,-7.829,-4.846
202.012691,-1.451,-9.236,-5.452
202.022403,-1.687,-10.326,-6.043
202.032115,-1.687,-11.097,-6.418
202.041827,-1.569,-10.865,-6.377
202.051539,-1.451,-10.46,-6.186
202.061251,-1.373,-10.492,-6.232
202.070963,-1.294,-11.747,-6.572
202.080675,-1.294,-12.808,-6.879
202.090387,-1.098,-11.76,-6.495
202.100099,-0.863,-10.919,-6.068
202.109811,-0.902,-11.181,-5.716
202.119516,-1.098,-10.824,-5.254
202.129221,-1.177,-10.169,-4.9
202.138926,-1.216,-9.992,-4.55
202.148631,-1.451,-10.144,-4.139
202.158336,-1.687,-9.853,-3.53
202.168041,-1.804,-9.594,-2.966
202.177746,-1.922,-10.01,-2.641
202.187451,-2.04,-9.994,-2.28
202.197156,-2.04,-10.66,-2.119
202.206861,-2.118,-10.821,-2.107
202.216566,-2.118,-11.182,-2.091
202.226271,-2.157,-11.555,-2.237
202.235976,-2.157,-11.857,-2.33
202.245681,-2.118,-11.882,-2.414
202.255402,-2.04,-11.567,-2.398
202.265123,-2.04,-11.205,-2.414
202.274844,-1.961,-10.728,-2.409
202.284565,-1.883,-10.194,-2.275
202.294286,-1.804,-9.653,-2.18
202.304007,-1.765,-8.996,-2.064
202.313728,-1.687,-8.469,-1.892
202.323449,-1.765,-7.942,-1.719
202.33317,-1.804,-7.569,-1.574
202.342891,-1.844,-7.138,-1.537
202.352612,-1.844,-7.085,-1.608
202.362333,-1.844,-7.04,-1.64
202.372054,-1.765,-6.742,-1.746
202.381762,-1.765,-7.056,-2.001
202.39147,-1.804,-7.095,-2.008
202.401178,-1.687,-7.029,-2.155
202.410886,-1.726,-7.079,-2.324
202.420594,-1.804,-6.865,-2.405
202.430302,-1.648,-6.651,-2.487
202.44001,-1.451,-6.67,-2.61
202.449718,-1.334,-6.72,-2.778
202.459426,-1.138,-6.886,-2.967
202.469134,-0.941,-7.272,-3.035
202.478842,-0.745,-7.361,-3.21
202.48855,-0.667,-7.347,-3.287
202.498258,-0.588,-7.572,-3.367
202.507966,-0.628,-7.881,-3.421
202.517695,-0.785,-8.099,-3.539
202.527424,-0.941,-8.735,-3.771
202.537153,-1.138,-9.617,-3.966
202.546882,-1.294,-10.062,-3.925
202.556611,-1.412,-9.762,-3.593
202.56634,-1.373,-10.608,-3.543
202.576069,-1.491,-12.08,-3.325
202.585798,-1.648,-12.869,-3.145
202.595527,-1.608,-13.978,-3.182
202.605256,-1.726,-14.643,-3.02
202.614985,-1.804,-15.493,-3.17
202.624714,-1.922,-16.611,-3.606
202.634443,-2.079,-16.882,-3.654
202.644167,-2.118,-14.925,-3.229
202.653891,-2.118,-12.937,-2.759
202.663615,-2.079,-11.735,-2.348
202.673339,-2.001,-10.726,-1.971
202.683063,-1.883,-10.196,-2.037
202.692787,-1.726,-9.758,-2.039
202.702511,-1.491,-10.169,-2.191
202.712235,-1.294,-9.867,-2.098
202.721959,-0.981,-9.499,-2.153
202.731683,-0.785,-9.558,-2.044
202.741407,-0.667,-9.699,-2.148
202.751131,-0.51,-9.93,-2.189
202.760855,-0.353,-9.737,-2.155
202.770579,-0.314,-9.512,-2.076
202.780288,-0.353,-9.244,-1.789
202.789997,-0.431,-9.096,-1.723
202.799706,-0.51,-8.924,-1.573
202.809415,-0.549,-8.646,-1.564
202.819124,-0.588,-8.485,-1.576
202.828833,-0.667,-8.169,-1.56
202.838542,-0.785,-7.91,-1.674
202.848251,-0.824,-7.588,-1.696
202.85796,-0.902,-7.317,-1.649
202.867669,-0.941,-7.24,-1.635
202.877378,-1.02,-6.963,-1.626
202.887087,-1.138,-6.738,-1.547
202.896796,-1.216,-6.538,-1.551
202.906505,-1.373,-6.345,-1.517
202.916215,-1.491,-6.183,-1.528
202.925925,-1.648,-6.267,-1.503
202.935635,-1.687,-6.274,-1.465
202.945345,-1.726,-6.576,-1.558
202.955055,-1.765,-7.349,-1.694
202.964765,-1.765,-7.658,-1.749
202.974475,-1.804,-8.16,-1.837
202.984185,-1.844,-8.458,-1.73
202.993895,-1.961,-8.71,-1.655
203.003605,-2.118,-9.651,-1.742
203.013315,-2.354,-10.412,-1.716
203.023025,-2.511,-11.044,-1.748
203.032735,-2.55,-11.816,-1.884
203.042465,-2.511,-12.55,-2.014
203.052195,-2.511,-13.175,-2.084
203.061925,-2.471,-13.389,-2.002
203.071655,-2.55,-13.139,-1.839
203.081385,-2.55,-13.139,-1.839
203.091115,-2.589,-13.577,-1.836
203.100845,-2.628,-14.241,-1.914
203.110575,-2.667,-14.82,-2.016
203.120305,-2.746,-14.802,-1.893
203.130035,-2.667,-14.046,-1.441
203.139765,-2.707,-12.575,-0.744
203.149495,-2.667,-11.33,-0.126
203.159225,-2.785,-10.907,0.188
203.168947,-2.864,-10.987,0.413
203.178669,-3.099,-10.753,0.215
203.188391,-3.256,-11.169,-0.137
203.198113,-3.373,-11.103,-0.285
203.207835,-3.373,-10.401,-0.201
203.217557,-3.373,-10.051,-0.378
203.227279,-3.334,-10.23,-0.489
203.237001,-3.256,-10.121,-0.43
203.246723,-3.217,-9.819,-0.337
203.256445,-3.02,-9.832,-0.26
203.266167,-2.864,-9.91,-0.274
203.275889,-2.707,-9.853,-0.144
203.285611,-2.511,-9.551,-0.051
203.295333,-2.393,-9.319,-0.01
203.305067,-2.236,-9.03,0.16
203.314801,-2.04,-8.578,0.081
203.324535,-1.883,-8.126,0.001
203.334269,-1.726,-7.86,-0.151
203.344003,-1.648,-7.646,-0.233
203.353737,-1.53,-7.381,-0.385
203.363471,-1.451,-7.231,-0.558
203.373205,-1.294,-7.049,-0.685
203.382939,-1.255,-6.913,-0.781
203.392673,-1.177,-6.808,-0.922
203.402407,-1.098,-6.672,-1.017
203.412141,-1.098,-6.465,-1.06
203.421875,-1.02,-6.226,-1.058
203.431594,-1.02,-6.129,-1.16
203.441313,-0.981,-6.49,-1.144
203.451032,-0.981,-6.515,-1.228
203.460751,-0.941,-6.829,-1.483
203.47047,-0.941,-7.51,-1.683
203.480189,-1.02,-8.083,-1.824
203.489908,-1.138,-8.783,-2.146
203.499627,-1.294,-9.349,-2.326
203.509346,-1.412,-9.89,-2.421
203.519065,-1.491,-10.424,-2.555
203.528784,-1.53,-10.798,-2.462
203.538503,-1.451,-10.748,-2.294
203.548222,-1.412,-11.585,-2.521
203.557941,-1.373,-13.15,-2.677
203.567672,-1.412,-13.328,-2.35
203.577403,-1.138,-12.914,-2.436
203.587134,-1.216,-13.007,-2.134
203.596865,-1.138,-13.184,-1.807
203.606596,-1.098,-13.377,-1.841
203.616327,-1.098,-13.662,-1.811
203.626058,-1.059,-14.452,-2.07
203.635789,-1.02,-13.9,-1.814
203.64552,-0.981,-12.787,-1.577
203.655251,-0.863,-12.234,-1.321
203.664982,-0.745,-11.541,-0.96
203.674713,-0.549,-11.65,-1.019
203.684444,-0.471,-11,-0.864
203.694173,-0.235,-11.507,-1.153
203.703902,-0.118,-11.553,-1.121
203.713631,0,-11.287,-1.273
203.72336,0.157,-11.182,-1.414
203.733089,0.196,-11.116,-1.562
203.742818,0.314,-11.019,-1.664
203.752547,0.353,-10.496,-1.691
203.762276,0.431,-10.039,-1.571
203.772005,0.471,-9.467,-1.43
