Time,AccelerometerX,AccelerometerY,AccelerometerZ
82.00163,1.491,-10.362,0.483
82.011329,1.491,-10.375,0.56
82.021028,1.451,-10.357,0.683
82.030727,1.451,-10.371,0.76
82.040426,1.451,-10.398,0.915
82.050159,1.412,-10.425,1.069
82.059892,1.334,-10.425,1.069
82.069625,1.373,-10.387,1.076
82.079358,1.373,-10.355,1.122
82.089091,1.294,-10.369,1.199
82.098824,1.255,-10.33,1.206
82.108557,1.177,-10.343,1.283
82.11829,1.177,-10.273,1.335
82.128023,1.138,-10.241,1.381
82.137756,1.177,-10.248,1.419
82.147489,1.177,-10.171,1.433
82.157222,1.177,-10.184,1.51
82.166955,1.177,-10.191,1.549
82.176694,1.216,-10.198,1.588
82.186433,1.216,-10.128,1.64
82.196172,1.216,-10.121,1.601
82.205911,1.294,-10.134,1.678
82.21565,1.334,-10.141,1.717
82.225389,1.373,-10.155,1.794
82.235128,1.412,-10.162,1.833
82.244867,1.412,-10.168,1.872
82.254606,1.491,-10.168,1.872
82.264345,1.53,-10.175,1.91
82.274084,1.608,-10.137,1.917
82.283823,1.648,-10.137,1.917
82.293562,1.608,-10.091,1.885
82.303301,1.608,-10.098,1.924
82.313036,1.569,-10.098,1.924
82.322771,1.569,-10.105,1.962
82.332506,1.569,-10.066,1.969
82.342241,1.53,-10.066,1.969
82.351976,1.491,-9.989,1.983
82.361711,1.491,-9.989,1.983
82.371446,1.491,-9.912,1.996
82.381181,1.491,-9.912,1.996
82.390916,1.491,-9.789,1.978
82.400651,1.53,-9.744,1.946
82.410386,1.569,-9.744,1.946
82.420121,1.608,-9.828,1.971
82.429856,1.608,-9.905,1.958
82.439591,1.569,-9.95,1.99
82.449307,1.608,-9.905,1.958
82.459023,1.569,-9.943,1.951
82.468739,1.53,-9.957,2.028
82.478455,1.53,-9.95,1.99
82.488171,1.491,-9.912,1.996
82.497887,1.53,-9.905,1.958
82.507603,1.53,-9.898,1.919
82.517319,1.451,-9.93,1.874
82.527035,1.412,-9.853,1.887
82.536751,1.373,-9.814,1.894
82.546467,1.334,-9.775,1.901
82.556183,1.373,-9.859,1.926
82.565899,1.334,-9.859,1.926
82.575615,1.294,-9.943,1.951
82.585337,1.294,-9.891,1.881
82.595059,1.294,-9.968,1.867
82.604781,1.255,-9.955,1.79
82.614503,1.177,-9.948,1.751
82.624225,1.138,-9.903,1.719
82.633947,1.098,-9.857,1.687
82.643669,1.098,-9.805,1.617
82.653391,1.098,-9.805,1.617
82.663113,1.059,-9.805,1.617
82.672835,1.02,-9.759,1.585
82.682557,1.059,-9.759,1.585
82.692279,1.02,-9.759,1.585
82.702001,0.941,-9.798,1.578
82.711731,0.902,-9.823,1.494
82.721461,0.863,-9.9,1.481
82.731191,0.863,-9.932,1.435
82.740921,0.785,-10.016,1.46
82.750651,0.745,-10.048,1.415
82.760381,0.706,-9.971,1.428
82.770111,0.667,-10.009,1.422
82.779841,0.628,-10.009,1.422
82.789571,0.628,-10.003,1.383
82.799301,0.588,-9.957,1.351
82.809031,0.549,-9.957,1.351
82.818761,0.549,-9.88,1.365
82.828491,0.549,-9.919,1.358
82.838221,0.549,-9.957,1.351
82.847947,0.549,-9.989,1.306
82.857673,0.549,-10.028,1.299
82.867399,0.549,-10.112,1.324
82.877125,0.549,-10.144,1.278
82.886851,0.549,-10.091,1.208
82.896577,0.51,-10.053,1.215
82.906303,0.51,-10.014,1.222
82.916029,0.51,-10.021,1.26
82.925755,0.51,-10.014,1.222
82.935481,0.51,-10.007,1.183
82.945207,0.51,-9.994,1.106
82.954933,0.51,-10.025,1.06
82.964659,0.51,-9.987,1.067
82.974385,0.51,-9.903,1.042
82.984157,0.51,-9.871,1.088
82.993929,0.51,-9.825,1.056
83.003701,0.51,-9.819,1.017
83.013473,0.549,-9.812,0.978
83.023245,0.549,-9.896,1.003
83.033017,0.549,-9.935,0.997
83.042789,0.431,-9.973,0.99
83.052561,0.392,-10.012,0.983
83.062333,0.353,-10.044,0.938
83.072105,0.314,-10.075,0.892
83.081877,0.275,-10.114,0.885
83.091649,0.275,-10.114,0.885
83.101421,0.275,-10.075,0.892
83.111164,0.235,-10.044,0.938
83.120907,0.196,-10.005,0.944
83.13065,0.235,-10.005,0.944
83.140393,0.235,-9.96,0.913
83.150136,0.196,-9.928,0.958
83.159879,0.235,-9.889,0.965
83.169622,0.314,-9.882,0.926
83.179365,0.314,-9.844,0.933
83.189108,0.353,-9.837,0.894
83.198851,0.431,-9.805,0.94
83.208594,0.471,-9.844,0.933
83.218337,0.549,-9.805,0.94
83.22808,0.628,-9.805,0.94
83.237823,0.628,-9.805,0.94
83.247566,0.667,-9.766,0.947
83.257305,0.667,-9.805,0.94
83.267044,0.745,-9.812,0.978
83.276783,0.745,-9.85,0.972
83.286522,0.745,-9.896,1.003
83.296261,0.745,-9.935,0.997
83.306,0.745,-10.012,0.983
83.315739,0.745,-10.057,1.015
83.325478,0.706,-10.019,1.022
83.335217,0.745,-10.057,1.015
83.344956,0.785,-10.064,1.053
83.354695,0.745,-10.071,1.092
83.364434,0.706,-10.071,1.092
83.374173,0.667,-10.064,1.053
83.38388,0.628,-10.078,1.131
83.393587,0.588,-10.109,1.085
83.403294,0.588,-10.032,1.099
83.413001,0.549,-10,1.144
83.422708,0.549,-9.955,1.113
83.432415,0.549,-9.91,1.081
83.442122,0.549,-9.871,1.088
83.451829,0.549,-9.864,1.049
83.461536,0.588,-9.832,1.094
83.471243,0.628,-9.832,1.094
83.48095,0.588,-9.832,1.094
83.490657,0.628,-9.884,1.165
83.500364,0.628,-9.884,1.165
83.510071,0.667,-9.923,1.158
83.519746,0.667,-9.923,1.158
83.529421,0.628,-10.007,1.183
83.539096,0.706,-10.13,1.201
83.548771,0.745,-10.098,1.247
83.558446,0.785,-10.098,1.247
83.568121,0.824,-10.098,1.247
83.577796,0.824,-10.105,1.285
83.587471,0.863,-10.137,1.24
83.597146,0.824,-10.066,1.292
83.606821,0.824,-10.066,1.292
83.616496,0.863,-10.066,1.292
83.626171,0.863,-10.105,1.285
83.635846,0.863,-10.059,1.253
83.645521,0.824,-10.098,1.247
83.6552,0.785,-10.091,1.208
83.664879,0.824,-10.039,1.138
83.674558,0.863,-10.053,1.215
83.684237,0.902,-10.021,1.26
83.693916,0.941,-9.975,1.228
83.703595,0.981,-9.982,1.267
83.713274,0.981,-9.982,1.267
83.722953,0.941,-9.982,1.267
83.732632,0.902,-10.059,1.253
83.742311,0.902,-10.059,1.253
83.75199,0.902,-10.028,1.299
83.761669,0.902,-10.021,1.26
83.771348,0.902,-9.982,1.267
83.78101,0.902,-10.021,1.26
83.790672,0.863,-9.975,1.228
83.800334,0.824,-9.969,1.19
83.809996,0.785,-9.93,1.197
83.819658,0.785,-9.853,1.21
83.82932,0.745,-9.853,1.21
83.838982,0.706,-9.884,1.165
83.848644,0.706,-9.891,1.203
83.858306,0.706,-9.923,1.158
83.867968,0.706,-9.955,1.113
83.87763,0.706,-9.962,1.151
83.887292,0.706,-9.962,1.151
83.896954,0.706,-9.962,1.151
83.906616,0.667,-9.891,1.203
83.916269,0.667,-9.884,1.165
83.925922,0.667,-9.923,1.158
83.935575,0.706,-9.916,1.119
83.945228,0.785,-9.962,1.151
83.954881,0.745,-9.962,1.151
83.964534,0.745,-9.891,1.203
83.974187,0.745,-9.891,1.203
83.98384,0.785,-9.93,1.197
83.993493,0.745,-9.937,1.235
84.003146,0.745,-9.944,1.274
84.012799,0.785,-9.937,1.235
84.022452,0.785,-9.975,1.228
84.032105,0.785,-9.975,1.228
84.041758,0.745,-10.053,1.215
84.051392,0.824,-10.091,1.208
84.061026,0.785,-10.091,1.208
84.07066,0.745,-10.105,1.285
84.080294,0.785,-10.028,1.299
84.089928,0.706,-10.021,1.26
84.099562,0.628,-10.059,1.253
84.109196,0.667,-10.014,1.222
84.11883,0.667,-10.007,1.183
84.128464,0.667,-9.93,1.197
84.138098,0.706,-9.891,1.203
84.147732,0.706,-9.853,1.21
84.157366,0.745,-9.859,1.249
84.167,0.745,-9.859,1.249
84.176634,0.745,-9.898,1.242
84.186274,0.745,-9.93,1.197
84.195914,0.706,-9.93,1.197
84.205554,0.706,-9.93,1.197
84.215194,0.667,-9.937,1.235
84.224834,0.667,-9.898,1.242
84.234474,0.745,-9.905,1.281
84.244114,0.785,-9.898,1.242
84.253754,0.824,-9.905,1.281
84.263394,0.902,-9.912,1.319
84.273034,0.902,-9.866,1.288
84.282674,0.902,-9.866,1.288
84.292314,0.902,-9.866,1.288
84.301954,0.941,-9.919,1.358
84.311623,0.941,-9.971,1.428
84.321292,0.902,-10.009,1.422
84.330961,0.902,-10.003,1.383
84.34063,0.941,-9.964,1.39
84.350299,0.941,-9.964,1.39
84.359968,0.902,-9.971,1.428
84.369637,0.941,-9.932,1.435
84.379306,0.981,-9.925,1.397
84.388975,0.941,-9.971,1.428
84.398644,0.941,-9.978,1.467
84.408313,0.941,-9.978,1.467
84.417982,0.902,-9.984,1.506
84.427651,0.902,-9.984,1.506
84.437326,0.863,-9.991,1.544
84.447001,0.863,-9.939,1.474
84.456676,0.824,-9.925,1.397
84.466351,0.863,-9.925,1.397
84.476026,0.902,-9.957,1.351
84.485701,0.902,-9.925,1.397
84.495376,0.941,-9.925,1.397
84.505051,0.941,-9.894,1.442
84.514726,0.941,-9.894,1.442
84.524401,0.902,-9.848,1.41
84.534076,0.941,-9.932,1.435
84.543751,0.902,-9.971,1.428
84.553426,0.902,-10.009,1.422
84.563101,0.941,-9.925,1.397
84.572804,0.941,-9.866,1.288
84.582507,0.941,-9.841,1.372
84.59221,0.941,-9.855,1.449
84.601913,0.941,-9.862,1.487
84.611616,0.981,-9.907,1.519
84.621319,0.981,-9.869,1.526
84.631022,0.941,-9.907,1.519
84.640725,0.981,-9.953,1.551
84.650428,0.981,-9.953,1.551
84.660131,0.941,-10.03,1.537
84.669834,0.902,-10.03,1.537
84.679537,0.902,-10.062,1.492
84.68924,0.785,-10.062,1.492
84.698944,0.706,-10.114,1.563
84.708648,0.745,-10.107,1.524
84.718352,0.785,-10.1,1.485
84.728056,0.785,-10.055,1.453
84.73776,0.785,-10.009,1.422
84.747464,0.824,-10.003,1.383
84.757168,0.902,-9.925,1.397
84.766872,0.981,-9.887,1.403
84.776576,1.177,-9.803,1.378
84.78628,1.373,-9.841,1.372
84.795984,1.569,-9.834,1.333
84.805688,1.883,-9.834,1.333
84.815392,2.079,-9.834,1.333
84.825096,2.275,-9.873,1.326
84.834823,2.432,-9.925,1.397
84.84455,2.471,-9.912,1.319
84.854277,2.667,-9.866,1.288
84.864004,2.864,-9.834,1.333
84.873731,3.02,-9.764,1.385
84.883458,2.942,-9.778,1.462
84.893185,2.746,-9.778,1.462
84.902912,2.393,-9.759,1.585
84.912639,2.157,-9.766,1.624
84.922366,1.844,-9.773,1.662
84.932093,1.569,-9.787,1.74
84.94182,1.334,-9.825,1.733
84.951547,1.098,-9.755,1.785
84.961278,0.941,-9.787,1.74
84.971009,0.745,-9.762,1.824
84.98074,0.471,-9.723,1.831
84.990471,0.275,-9.737,1.908
85.000202,0.039,-9.737,1.908
85.009933,-0.118,-9.744,1.946
85.019664,-0.275,-9.75,1.985
85.029395,-0.314,-9.744,1.946
85.039126,-0.314,-9.75,1.985
85.048857,-0.353,-9.789,1.978
85.058588,-0.353,-9.789,1.978
85.068319,-0.353,-9.828,1.971
85.07805,-0.353,-9.866,1.965
85.087781,-0.314,-9.943,1.951
85.097494,-0.275,-9.912,1.996
85.107207,-0.275,-9.873,2.003
85.11692,-0.275,-9.828,1.971
85.126633,-0.196,-9.88,2.042
85.136346,-0.157,-9.855,2.126
85.146059,-0.118,-9.893,2.119
85.155772,-0.078,-9.855,2.126
85.165485,-0.039,-9.946,2.19
85.175198,-0.039,-9.978,2.144
85.184911,-0.039,-10.009,2.099
85.194624,-0.039,-10.041,2.053
85.204337,-0.039,-10.08,2.047
85.21405,-0.039,-10.118,2.04
85.223763,-0.078,-10.073,2.008
85.233494,-0.078,-10.112,2.001
85.243225,-0.078,-10.053,1.892
85.252956,-0.118,-10.046,1.853
85.262687,-0.157,-10.046,1.853
85.272418,-0.157,-9.923,1.835
85.282149,-0.157,-9.839,1.81
85.29188,-0.118,-9.723,1.831
85.301611,-0.118,-9.684,1.837
85.311342,-0.157,-9.646,1.844
85.321073,-0.118,-9.607,1.851
85.330804,-0.118,-9.646,1.844
85.340535,-0.118,-9.723,1.831
85.350266,-0.157,-9.762,1.824
85.360011,-0.157,-9.828,1.971
85.369756,-0.196,-9.853,1.887
85.379501,-0.235,-9.937,1.912
85.389246,-0.196,-9.884,1.842
85.398991,-0.314,-9.898,1.919
85.408736,-0.314,-9.905,1.958
85.418481,-0.431,-9.905,1.958
85.428226,-0.431,-9.912,1.996
85.437971,-0.51,-9.912,1.996
85.447716,-0.51,-9.88,2.042
85.457461,-0.51,-9.918,2.035
85.467206,-0.471,-9.918,2.035
85.476951,-0.471,-9.887,2.081
85.486696,-0.431,-9.809,2.094
85.496427,-0.431,-9.757,2.024
85.506158,-0.431,-9.693,2.115
85.515889,-0.431,-9.675,2.237
85.52562,-0.353,-9.598,2.251
85.535351,-0.275,-9.553,2.219
85.545082,-0.118,-9.591,2.212
85.554813,-0.039,-9.668,2.199
85.564544,0.157,-9.784,2.178
85.574275,0.314,-9.914,2.235
85.584006,0.431,-9.953,2.228
85.593737,0.51,-9.984,2.183
85.603468,0.588,-10.016,2.137
85.613199,0.706,-9.984,2.183
85.62293,0.745,-9.907,2.196
85.632639,0.745,-9.837,2.249
85.642348,0.745,-9.823,2.171
85.652057,0.745,-9.791,2.217
85.661766,0.745,-9.843,2.287
85.671475,0.706,-9.909,2.435
85.681184,0.706,-9.852,2.565
85.690893,0.706,-9.782,2.617
85.700602,0.785,-9.821,2.61
85.710311,0.824,-9.943,2.628
85.72002,0.941,-10.066,2.646
85.729729,0.981,-10.221,2.619
85.739438,0.941,-10.277,2.49
85.749147,0.981,-10.225,2.419
85.758856,1.02,-10,2.499
85.768542,0.941,-9.755,2.462
85.778228,0.902,-9.639,2.483
85.787914,0.941,-9.632,2.444
85.7976,0.941,-9.632,2.444
85.807286,0.981,-9.748,2.424
85.816972,1.02,-9.825,2.41
85.826658,0.981,-9.871,2.442
85.836344,0.981,-9.864,2.403
85.84603,1.059,-9.864,2.403
85.855716,1.059,-9.832,2.449
85.865402,1.059,-9.818,2.371
85.875088,1.059,-9.864,2.403
85.884774,1.098,-9.857,2.365
85.89446,1.059,-9.812,2.333
85.904145,1.02,-9.759,2.262
85.91383,0.981,-9.766,2.301
85.923515,0.981,-9.734,2.346
85.9332,1.02,-9.696,2.353
85.942885,1.02,-9.689,2.315
85.95257,1.02,-9.728,2.308
85.962255,0.981,-9.773,2.34
85.97194,1.02,-9.805,2.294
85.981625,1.059,-9.837,2.249
85.99131,1.059,-9.791,2.217
86.000995,1.059,-9.746,2.185
86.01068,1.098,-9.753,2.224
86.020365,1.098,-9.784,2.178
86.030039,1.098,-9.791,2.217
86.039713,1.138,-9.791,2.217
86.049387,1.059,-9.714,2.231
86.059061,1.098,-9.714,2.231
86.068735,1.138,-9.784,2.178
86.078409,1.216,-9.746,2.185
86.088083,1.255,-9.707,2.192
86.097757,1.255,-9.784,2.178
86.107431,1.294,-9.862,2.165
86.117105,1.334,-9.9,2.158
86.126779,1.294,-9.907,2.196
86.136453,1.255,-9.907,2.196
86.146127,1.255,-9.907,2.196
86.155801,1.216,-9.953,2.228
86.165469,1.216,-9.893,2.119
86.175137,1.177,-9.907,2.196
86.184805,1.177,-9.868,2.203
86.194473,1.138,-9.862,2.165
86.204141,1.098,-9.862,2.165
86.213809,1.098,-9.893,2.119
86.223477,1.059,-9.887,2.081
86.233145,1.059,-9.925,2.074
86.242813,0.981,-9.95,1.99
86.252481,0.941,-9.975,1.906
86.262149,0.941,-9.898,1.919
86.271817,0.941,-9.891,1.881
86.281485,0.941,-9.839,1.81
86.291153,0.902,-9.8,1.817
86.300836,0.863,-9.748,1.747
86.310519,0.824,-9.734,1.669
86.320202,0.824,-9.734,1.669
86.329885,0.824,-9.734,1.669
86.339568,0.824,-9.773,1.662
86.349251,0.785,-9.805,1.617
86.358934,0.745,-9.759,1.585
86.368617,0.745,-9.759,1.585
86.3783,0.745,-9.721,1.592
86.387983,0.745,-9.714,1.553
86.397666,0.706,-9.714,1.553
86.407349,0.706,-9.675,1.56
86.417032,0.706,-9.637,1.567
86.426705,0.667,-9.65,1.644
86.436378,0.706,-9.65,1.644
86.446051,0.745,-9.644,1.606
86.455724,0.706,-9.689,1.637
86.465397,0.745,-9.682,1.599
86.47507,0.745,-9.721,1.592
86.484743,0.745,-9.766,1.624
86.494416,0.785,-9.805,1.617
86.504089,0.785,-9.805,1.617
86.513762,0.785,-9.875,1.565
86.523435,0.785,-9.914,1.558
86.533108,0.785,-9.921,1.597
86.542781,0.785,-9.889,1.642
86.552454,0.785,-9.889,1.642
86.562141,0.863,-9.875,1.565
86.571828,0.824,-9.934,1.674
86.581515,0.863,-9.928,1.635
86.591202,0.902,-9.896,1.681
86.600889,0.863,-9.928,1.635
86.610576,0.863,-9.973,1.667
86.620263,0.863,-9.903,1.719
86.62995,0.863,-9.903,1.719
86.639637,0.863,-9.903,1.719
86.649324,0.863,-9.909,1.758
86.659011,0.863,-9.916,1.797
86.668698,0.863,-9.916,1.797
86.678385,0.863,-9.909,1.758
86.688067,0.863,-9.93,1.874
86.697749,0.902,-9.916,1.797
86.707431,0.902,-9.878,1.803
86.717113,0.902,-9.832,1.772
86.726795,0.863,-9.825,1.733
86.736477,0.863,-9.825,1.733
86.746159,0.863,-9.748,1.747
86.755841,0.863,-9.794,1.778
86.765523,0.824,-9.787,1.74
86.775205,0.824,-9.787,1.74
86.784887,0.824,-9.8,1.817
86.794569,0.785,-9.832,1.772
86.804251,0.824,-9.871,1.765
86.813933,0.824,-9.916,1.797
86.823627,0.785,-9.937,1.912
86.833321,0.824,-9.891,1.881
86.843015,0.824,-9.846,1.849
86.852709,0.824,-9.846,1.849
86.862403,0.824,-9.898,1.919
86.872097,0.863,-9.905,1.958
86.881791,0.902,-9.859,1.926
86.891485,0.902,-9.866,1.965
86.901179,0.902,-9.866,1.965
86.910873,0.902,-9.866,1.965
86.920567,0.941,-9.873,2.003
86.930261,0.902,-9.912,1.996
86.939955,0.863,-9.873,2.003
86.949637,0.824,-9.918,2.035
86.959319,0.863,-9.88,2.042
86.969001,0.941,-9.88,2.042
86.978683,0.941,-9.841,2.049
86.988365,0.941,-9.88,2.042
86.998047,0.902,-9.873,2.003
87.007729,0.941,-9.873,2.003
87.017411,0.981,-9.873,2.003
87.027093,0.941,-9.834,2.01
87.036775,0.941,-9.834,2.01
87.046457,0.981,-9.834,2.01
87.056139,0.981,-9.803,2.056
87.065821,1.02,-9.841,2.049
87.075503,1.02,-9.828,1.971
87.085211,0.981,-9.834,2.01
87.094919,1.02,-9.834,2.01
87.104627,0.981,-9.828,1.971
87.114335,0.981,-9.828,1.971
87.124043,0.941,-9.828,1.971
87.133751,0.902,-9.834,2.01
87.143459,0.902,-9.828,1.971
87.153167,0.863,-9.796,2.017
87.162875,0.863,-9.75,1.985
87.172583,0.863,-9.757,2.024
87.182291,0.824,-9.796,2.017
87.191999,0.824,-9.841,2.049
87.201707,0.863,-9.803,2.056
87.211413,0.785,-9.739,2.146
87.221119,0.824,-9.771,2.101
87.230825,0.863,-9.784,2.178
87.240531,0.863,-9.771,2.101
87.250237,0.902,-9.816,2.133
87.259943,0.902,-9.771,2.101
87.269649,0.902,-9.809,2.094
87.279355,0.902,-9.809,2.094
87.289061,0.941,-9.848,2.087
87.298767,0.941,-9.778,2.14
87.308473,0.941,-9.784,2.178
87.318179,0.941,-9.784,2.178
87.327885,0.941,-9.791,2.217
87.337591,0.902,-9.759,2.262
87.347283,0.863,-9.805,2.294
87.356975,0.902,-9.871,2.442
87.366667,0.863,-9.896,2.358
87.376359,0.863,-9.973,2.344
87.386051,0.863,-9.966,2.306
87.395743,0.902,-9.966,2.306
87.405435,0.902,-9.928,2.312
87.415127,0.941,-9.882,2.281
87.424819,0.981,-9.843,2.287
87.434511,0.981,-9.798,2.256
87.444203,1.059,-9.798,2.256
87.453895,1.098,-9.766,2.301
87.463587,1.098,-9.798,2.256
87.473279,1.098,-9.784,2.178
87.482991,1.138,-9.83,2.21
87.492703,1.098,-9.791,2.217
87.502415,1.098,-9.784,2.178
87.512127,1.138,-9.784,2.178
87.521839,1.138,-9.7,2.153
87.531551,1.177,-9.746,2.185
87.541263,1.098,-9.707,2.192
87.550975,1.138,-9.739,2.146
87.560687,1.098,-9.739,2.146
87.570399,1.177,-9.693,2.115
87.580111,1.098,-9.7,2.153
87.589823,1.138,-9.7,2.153
87.599535,1.098,-9.778,2.14
87.609231,1.059,-9.707,2.192
87.618927,1.098,-9.778,2.14
87.628623,1.059,-9.791,2.217
87.638319,1.059,-9.766,2.301
87.648015,1.059,-9.791,2.217
87.657711,1.098,-9.83,2.21
87.667407,1.098,-9.823,2.171
87.677103,1.059,-9.862,2.165
87.686799,1.02,-9.855,2.126
87.696495,1.02,-9.855,2.126
87.706191,1.02,-9.816,2.133
87.715887,1.02,-9.816,2.133
87.725583,1.02,-9.778,2.14
87.735279,1.02,-9.771,2.101
87.744983,1.02,-9.732,2.108
87.754687,1.02,-9.655,2.121
87.764391,1.02,-9.571,2.096
87.774095,1.059,-9.564,2.058
87.783799,1.059,-9.525,2.065
87.793503,1.02,-9.571,2.096
87.803207,1.02,-9.603,2.051
87.812911,1.02,-9.571,2.096
87.822615,0.981,-9.616,2.128
87.832319,0.981,-9.655,2.121
87.842023,0.941,-9.746,2.185
87.851727,0.981,-9.784,2.178
87.861431,0.941,-9.784,2.178
87.871119,0.981,-9.837,2.249
87.880807,0.981,-9.837,2.249
87.890495,1.02,-9.791,2.217
87.900183,1.059,-9.753,2.224
87.909871,1.059,-9.721,2.269
87.919559,1.059,-9.675,2.237
87.929247,1.098,-9.728,2.308
87.938935,1.098,-9.728,2.308
87.948623,1.098,-9.734,2.346
87.958311,1.177,-9.728,2.308
87.967999,1.216,-9.766,2.301
87.977687,1.216,-9.805,2.294
87.987375,1.216,-9.798,2.256
87.997063,1.216,-9.798,2.256
88.006755,1.255,-9.805,2.294
88.016447,1.177,-9.857,2.365
88.026139,1.177,-9.741,2.385
88.035831,1.177,-9.748,2.424
88.045523,1.138,-9.748,2.424
88.055215,1.098,-9.748,2.424
88.064907,1.098,-9.825,2.41
88.074599,1.098,-9.818,2.371
88.084291,1.098,-9.864,2.403
88.093983,1.059,-9.857,2.365
88.103675,1.02,-9.818,2.371
88.113367,1.02,-9.787,2.417
88.123059,1.02,-9.748,2.424
88.132777,0.902,-9.755,2.462
88.142495,0.981,-9.755,2.462
88.152213,1.02,-9.793,2.455
88.161931,1.02,-9.832,2.449
88.171649,0.981,-9.871,2.442
88.181367,0.981,-9.832,2.449
88.191085,1.02,-9.793,2.455
88.200803,1.02,-9.741,2.385
88.210521,1.02,-9.748,2.424
88.220239,1.059,-9.703,2.392
88.229957,1.059,-9.657,2.36
88.239675,1.02,-9.657,2.36
88.249393,0.981,-9.689,2.315
88.259124,0.941,-9.65,2.321
88.268855,0.981,-9.657,2.36
88.278586,1.059,-9.671,2.437
88.288317,1.059,-9.696,2.353
88.298048,1.098,-9.696,2.353
88.307779,1.059,-9.728,2.308
88.31751,1.059,-9.721,2.269
88.327241,1.02,-9.675,2.237
88.336972,1.059,-9.714,2.231
88.346703,1.02,-9.714,2.231
88.356434,1.059,-9.637,2.244
88.366165,1.02,-9.559,2.258
88.375896,1.059,-9.528,2.303
88.385627,1.059,-9.528,2.303
88.395358,1.098,-9.528,2.303
88.405073,1.059,-9.632,2.444
88.414788,1.098,-9.696,2.353
88.424503,1.138,-9.734,2.346
88.434218,1.138,-9.78,2.378
88.443933,1.098,-9.832,2.449
88.453648,1.059,-9.871,2.442
88.463363,1.138,-9.832,2.449
88.473078,1.098,-9.839,2.487
88.482793,1.138,-9.884,2.519
88.492508,1.138,-9.884,2.519
88.502223,1.098,-9.846,2.526
88.511938,1.098,-9.846,2.526
88.521653,1.059,-9.807,2.533
88.531368,1.059,-9.762,2.501
88.541086,0.941,-9.684,2.515
88.550804,0.981,-9.664,2.399
88.560522,1.02,-9.632,2.444
88.57024,0.981,-9.587,2.412
88.579958,1.02,-9.548,2.419
88.589676,1.059,-9.587,2.412
88.599394,1.098,-9.548,2.419
88.609112,1.059,-9.548,2.419
88.61883,1.059,-9.587,2.412
88.628548,1.059,-9.587,2.412
88.638266,1.059,-9.587,2.412
88.647984,1.059,-9.632,2.444
88.657702,1.098,-9.709,2.43
88.667397,1.059,-9.678,2.476
88.677092,1.059,-9.716,2.469
88.686787,1.138,-9.793,2.455
88.696482,1.138,-9.839,2.487
88.706177,1.098,-9.839,2.487
88.715872,1.138,-9.846,2.526
88.725567,1.138,-9.768,2.54
88.735262,1.138,-9.723,2.508
88.744957,1.177,-9.678,2.476
88.754652,1.177,-9.678,2.476
88.764347,1.177,-9.684,2.515
88.774042,1.177,-9.639,2.483
88.783737,1.177,-9.639,2.483
88.793432,1.177,-9.684,2.515
88.803134,1.138,-9.73,2.546
88.812836,1.098,-9.755,2.462
88.822538,1.098,-9.755,2.462
88.83224,1.098,-9.723,2.508
88.841942,1.098,-9.684,2.515
88.851644,1.02,-9.671,2.437
88.861346,1.059,-9.684,2.515
88.871048,1.02,-9.723,2.508
88.88075,1.02,-9.716,2.469
88.890452,1.059,-9.709,2.43
88.900154,1.098,-9.755,2.462
88.909856,1.098,-9.755,2.462
88.919558,1.098,-9.716,2.469
88.929256,1.138,-9.664,2.399
88.938954,1.098,-9.671,2.437
88.948652,1.098,-9.593,2.451
88.95835,1.059,-9.632,2.444
88.968048,1.059,-9.632,2.444
88.977746,1.059,-9.678,2.476
88.987444,1.02,-9.716,2.469
88.997142,1.02,-9.755,2.462
89.00684,1.02,-9.755,2.462
89.016538,1.02,-9.755,2.462
89.026236,0.981,-9.755,2.462
89.035934,0.902,-9.716,2.469
89.045632,0.902,-9.678,2.476
89.05533,0.863,-9.646,2.521
89.065028,0.863,-9.678,2.476
89.074746,0.863,-9.659,2.599
89.084464,0.902,-9.691,2.553
89.094182,0.902,-9.737,2.585
89.1039,0.863,-9.737,2.585
89.113618,0.902,-9.768,2.54
89.123336,0.902,-9.768,2.54
89.133054,0.941,-9.716,2.469
89.142772,0.941,-9.716,2.469
89.15249,0.981,-9.678,2.476
89.162208,0.981,-9.678,2.476
89.171926,0.981,-9.684,2.515
89.181644,0.981,-9.653,2.56
89.191362,0.941,-9.653,2.56
89.201074,0.981,-9.646,2.521
89.210786,1.02,-9.653,2.56
89.220498,0.981,-9.73,2.546
89.23021,1.02,-9.768,2.54
89.239922,1.02,-9.8,2.494
89.249634,1.059,-9.8,2.494
89.259346,1.059,-9.807,2.533
89.269058,1.02,-9.8,2.494
89.27877,1.02,-9.768,2.54
89.288482,1.02,-9.723,2.508
89.298194,1.02,-9.716,2.469
89.307906,0.981,-9.723,2.508
89.317618,0.981,-9.646,2.521
89.32733,0.941,-9.678,2.476
89.337056,0.981,-9.678,2.476
89.346782,0.941,-9.684,2.515
89.356508,0.941,-9.678,2.476
89.366234,0.981,-9.678,2.476
89.37596,0.941,-9.716,2.469
89.385686,0.902,-9.748,2.424
89.395412,0.981,-9.748,2.424
89.405138,0.941,-9.755,2.462
89.414864,0.941,-9.709,2.43
89.42459,0.981,-9.678,2.476
89.434316,0.981,-9.678,2.476
89.444042,0.941,-9.678,2.476
89.453768,0.981,-9.671,2.437
89.463483,0.981,-9.618,2.367
89.473198,0.941,-9.664,2.399
89.482913,0.981,-9.657,2.36
89.492628,0.902,-9.728,2.308
89.502343,0.941,-9.689,2.315
89.512058,0.941,-9.657,2.36
89.521773,0.981,-9.65,2.321
89.531488,0.981,-9.696,2.353
89.541203,1.02,-9.703,2.392
89.550918,1.02,-9.689,2.315
89.560633,1.059,-9.734,2.346
89.570348,1.138,-9.773,2.34
89.580063,1.138,-9.741,2.385
89.589778,1.177,-9.703,2.392
89.599472,1.216,-9.684,2.515
89.609166,1.177,-9.723,2.508
89.61886,1.177,-9.723,2.508
89.628554,1.216,-9.716,2.469
89.638248,1.216,-9.678,2.476
89.647942,1.216,-9.671,2.437
89.657636,1.255,-9.657,2.36
89.66733,1.216,-9.664,2.399
89.677024,1.216,-9.587,2.412
89.686718,1.216,-9.587,2.412
89.696412,1.177,-9.618,2.367
89.706106,1.177,-9.618,2.367
89.7158,1.138,-9.618,2.367
89.725494,1.138,-9.664,2.399
89.735206,1.138,-9.678,2.476
89.744918,1.098,-9.671,2.437
89.75463,1.098,-9.646,2.521
89.764342,1.098,-9.684,2.515
89.774054,1.059,-9.678,2.476
89.783766,1.059,-9.646,2.521
89.793478,1.02,-9.684,2.515
89.80319,0.981,-9.762,2.501
89.812902,0.981,-9.723,2.508
89.822614,0.941,-9.691,2.553
89.832326,0.941,-9.653,2.56
89.842038,0.981,-9.607,2.528
89.85175,0.981,-9.646,2.521
89.861455,1.02,-9.646,2.521
89.87116,1.059,-9.607,2.528
89.880865,1.059,-9.684,2.515
89.89057,1.059,-9.716,2.469
89.900275,1.098,-9.646,2.521
89.90998,1.177,-9.698,2.592
89.919685,1.216,-9.73,2.546
89.92939,1.216,-9.768,2.54
89.939095,1.255,-9.737,2.585
89.9488,1.294,-9.705,2.63
89.958505,1.334,-9.666,2.637
89.96821,1.334,-9.653,2.56
89.977915,1.334,-9.614,2.567
89.98762,1.294,-9.614,2.567
89.997337,1.334,-9.575,2.574
90.007054,1.294,-9.659,2.599
90.016771,1.255,-9.659,2.599
90.026488,1.255,-9.614,2.567
90.036205,1.177,-9.659,2.599
90.045922,1.098,-9.691,2.553
90.055639,1.138,-9.723,2.508
90.065356,1.098,-9.684,2.515
90.075073,1.098,-9.614,2.567
90.08479,1.02,-9.575,2.574
90.094507,1.02,-9.614,2.567
90.104224,0.981,-9.621,2.605
90.113941,0.981,-9.582,2.612
90.123644,0.902,-9.582,2.612
90.133347,0.941,-9.589,2.651
90.14305,0.981,-9.596,2.69
90.152753,1.059,-9.68,2.715
90.162456,1.098,-9.693,2.792
90.172159,1.059,-9.687,2.753
90.181862,1.059,-9.68,2.715
90.191565,1.098,-9.687,2.753
90.201268,1.098,-9.687,2.753
90.210971,1.098,-9.687,2.753
90.220674,1.138,-9.68,2.715
90.230377,1.059,-9.68,2.715
90.24008,1.098,-9.687,2.753
90.249783,1.098,-9.693,2.792
90.259494,1.02,-9.693,2.792
90.269205,1.059,-9.725,2.746
90.278916,1.059,-9.687,2.753
90.288627,1.059,-9.725,2.746
90.298338,1.098,-9.725,2.746
90.308049,1.098,-9.725,2.746
90.31776,1.098,-9.718,2.708
90.327471,1.098,-9.641,2.721
90.337182,1.059,-9.609,2.767
90.346893,1.098,-9.525,2.742
90.356604,1.059,-9.487,2.749
90.366315,1.02,-9.48,2.71
90.376026,1.02,-9.48,2.71
90.385719,1.059,-9.473,2.671
90.395412,1.059,-9.512,2.665
90.405105,1.059,-9.564,2.735
90.414798,1.098,-9.55,2.658
90.424491,1.059,-9.603,2.728
90.434184,1.059,-9.648,2.76
90.443877,1.098,-9.648,2.76
90.45357,1.098,-9.693,2.792
90.463263,1.138,-9.693,2.792
90.472956,1.177,-9.693,2.792
90.482649,1.177,-9.7,2.83
90.492342,1.216,-9.7,2.83
90.502035,1.177,-9.739,2.824
90.511728,1.216,-9.777,2.817
90.521433,1.216,-9.764,2.74
90.531138,1.177,-9.771,2.778
90.540843,1.216,-9.732,2.785
90.550548,1.216,-9.693,2.792
90.560253,1.177,-9.648,2.76
90.569958,1.177,-9.641,2.721
90.579663,1.138,-9.648,2.76
90.589368,1.138,-9.634,2.683
90.599073,1.098,-9.596,2.69
90.608778,1.059,-9.589,2.651
90.618483,1.098,-9.582,2.612
90.628188,1.098,-9.543,2.619
90.637893,1.098,-9.55,2.658
90.647604,1.138,-9.589,2.651
90.657315,1.138,-9.518,2.703
90.667026,1.098,-9.518,2.703
90.676737,1.059,-9.518,2.703
90.686448,1.059,-9.518,2.703
90.696159,1.02,-9.518,2.703
90.70587,1.02,-9.589,2.651
90.715581,1.059,-9.628,2.644
90.725292,1.059,-9.634,2.683
90.735003,1.059,-9.666,2.637
90.744714,1.059,-9.628,2.644
90.754425,1.098,-9.673,2.676
90.764136,1.059,-9.705,2.63
90.773847,1.02,-9.68,2.715
90.783537,1.059,-9.687,2.753
90.793227,1.059,-9.641,2.721
90.802917,1.02,-9.648,2.76
90.812607,1.059,-9.634,2.683
90.822297,1.02,-9.634,2.683
90.831987,1.059,-9.589,2.651
90.841677,1.098,-9.621,2.605
90.851367,1.098,-9.582,2.612
90.861057,1.098,-9.575,2.574
90.870747,1.098,-9.575,2.574
90.880437,1.138,-9.582,2.612
90.890127,1.177,-9.575,2.574
90.899817,1.177,-9.575,2.574
90.909507,1.177,-9.621,2.605
90.919168,1.255,-9.653,2.56
90.928829,1.255,-9.659,2.599
90.93849,1.255,-9.659,2.599
90.948151,1.255,-9.705,2.63
90.957812,1.255,-9.705,2.63
90.967473,1.255,-9.705,2.63
90.977134,1.255,-9.712,2.669
90.986795,1.255,-9.666,2.637
90.996456,1.216,-9.698,2.592
91.006117,1.216,-9.705,2.63
91.015778,1.216,-9.75,2.662
91.025439,1.216,-9.705,2.63
91.0351,1.216,-9.673,2.676
91.044761,1.138,-9.673,2.676
91.054441,1.177,-9.634,2.683
91.064121,1.177,-9.673,2.676
91.073801,1.177,-9.634,2.683
91.083481,1.138,-9.557,2.696
91.093161,1.138,-9.589,2.651
91.102841,1.138,-9.582,2.612
91.112521,1.138,-9.582,2.612
91.122201,1.098,-9.607,2.528
91.131881,1.059,-9.614,2.567
91.141561,1.098,-9.621,2.605
91.151241,1.059,-9.621,2.605
91.160921,1.059,-9.698,2.592
91.170601,1.098,-9.659,2.599
91.180272,1.098,-9.639,2.483
91.189943,1.098,-9.646,2.521
91.199614,1.098,-9.653,2.56
91.209285,1.138,-9.653,2.56
91.218956,1.138,-9.691,2.553
91.228627,1.098,-9.607,2.528
91.238298,1.098,-9.621,2.605
91.247969,1.098,-9.659,2.599
91.25764,1.098,-9.698,2.592
91.267311,1.059,-9.698,2.592
91.276982,1.098,-9.737,2.585
91.286653,1.138,-9.73,2.546
91.296324,1.138,-9.73,2.546
91.305995,1.138,-9.678,2.476
91.315646,1.138,-9.678,2.476
91.325297,1.098,-9.646,2.521
91.334948,1.059,-9.632,2.444
91.344599,1.138,-9.6,2.49
91.35425,1.138,-9.562,2.496
91.363901,1.138,-9.562,2.496
91.373552,1.138,-9.562,2.496
91.383203,1.138,-9.593,2.451
91.392854,1.138,-9.671,2.437
91.402505,1.138,-9.671,2.437
91.412156,1.098,-9.671,2.437
91.421807,1.098,-9.678,2.476
91.431458,1.098,-9.632,2.444
91.441109,1.098,-9.639,2.483
91.450755,1.059,-9.593,2.451
91.460401,1.098,-9.53,2.542
91.470047,1.098,-9.562,2.496
91.479693,1.098,-9.568,2.535
91.489339,1.098,-9.562,2.496
91.498985,1.098,-9.6,2.49
91.508631,1.098,-9.6,2.49
91.518277,1.059,-9.607,2.528
91.527923,1.059,-9.614,2.567
91.537569,1.059,-9.607,2.528
91.547215,1.098,-9.653,2.56
91.556861,1.098,-9.698,2.592
91.566507,1.098,-9.743,2.624
91.576153,1.138,-9.737,2.585
91.585816,1.02,-9.712,2.669
91.595479,1.059,-9.698,2.592
91.605142,1.098,-9.743,2.624
91.614805,1.098,-9.743,2.624
91.624468,1.138,-9.75,2.662
91.634131,1.098,-9.75,2.662
91.643794,1.138,-9.75,2.662
91.653457,1.138,-9.75,2.662
91.66312,1.138,-9.789,2.655
91.672783,1.177,-9.827,2.649
91.682446,1.177,-9.789,2.655
91.692109,1.177,-9.789,2.655
91.701772,1.177,-9.789,2.655
91.711442,1.177,-9.814,2.571
91.721112,1.138,-9.821,2.61
91.730782,1.138,-9.775,2.578
91.740452,1.138,-9.821,2.61
91.750122,1.098,-9.814,2.571
91.759792,1.098,-9.814,2.571
91.769462,1.138,-9.768,2.54
91.779132,1.098,-9.723,2.508
91.788802,1.059,-9.755,2.462
91.798472,1.098,-9.716,2.469
91.808142,1.098,-9.671,2.437
91.817812,1.098,-9.678,2.476
91.827482,1.138,-9.632,2.444
91.837152,1.098,-9.716,2.469
91.846837,1.098,-9.723,2.508
91.856522,1.098,-9.723,2.508
91.866207,1.098,-9.755,2.462
91.875892,1.02,-9.716,2.469
91.885577,1.02,-9.709,2.43
91.895262,1.02,-9.671,2.437
91.904947,1.02,-9.632,2.444
91.914632,0.981,-9.593,2.451
91.924317,0.981,-9.58,2.374
91.934002,0.981,-9.541,2.38
91.943687,1.059,-9.541,2.38
91.953372,1.098,-9.541,2.38
91.963057,1.098,-9.534,2.342
91.972742,1.138,-9.541,2.38
91.982418,1.138,-9.593,2.451
91.992094,1.138,-9.625,2.405
92.00177,1.138,-9.58,2.374
92.011446,1.098,-9.618,2.367
92.021122,1.138,-9.612,2.328
92.030798,1.177,-9.566,2.296
92.040474,1.177,-9.618,2.367
92.05015,1.177,-9.664,2.399
92.059826,1.216,-9.657,2.36
92.069502,1.255,-9.657,2.36
92.079178,1.294,-9.657,2.36
92.088854,1.294,-9.689,2.315
92.09853,1.294,-9.696,2.353
92.108206,1.334,-9.703,2.392
92.117902,1.334,-9.696,2.353
92.127598,1.334,-9.741,2.385
92.137294,1.373,-9.787,2.417
92.14699,1.373,-9.787,2.417
92.156686,1.373,-9.748,2.424
92.166382,1.412,-9.741,2.385
92.176078,1.373,-9.703,2.392
92.185774,1.373,-9.664,2.399
92.19547,1.373,-9.664,2.399
92.205166,1.412,-9.625,2.405
92.214862,1.373,-9.587,2.412
92.224558,1.334,-9.632,2.444
92.234254,1.373,-9.671,2.437
92.243969,1.451,-9.625,2.405
92.253684,1.412,-9.632,2.444
92.263399,1.451,-9.684,2.515
92.273114,1.373,-9.621,2.605
92.282829,1.412,-9.653,2.56
92.292544,1.412,-9.646,2.521
92.302259,1.373,-9.646,2.521
92.311974,1.373,-9.614,2.567
92.321689,1.412,-9.607,2.528
92.331404,1.373,-9.607,2.528
92.341119,1.412,-9.607,2.528
92.350834,1.412,-9.646,2.521
92.360549,1.412,-9.646,2.521
92.370264,1.451,-9.639,2.483
92.379971,1.451,-9.632,2.444
92.389678,1.491,-9.6,2.49
92.399385,1.451,-9.593,2.451
92.409092,1.451,-9.555,2.458
92.418799,1.412,-9.471,2.433
92.428506,1.412,-9.439,2.478
92.438213,1.412,-9.439,2.478
92.44792,1.373,-9.478,2.471
92.457627,1.373,-9.523,2.503
92.467334,1.373,-9.562,2.496
92.477041,1.373,-9.6,2.49
92.486748,1.373,-9.568,2.535
92.496455,1.334,-9.614,2.567
92.506162,1.294,-9.614,2.567
92.51589,1.294,-9.628,2.644
92.525618,1.255,-9.673,2.676
92.535346,1.255,-9.673,2.676
92.545074,1.294,-9.666,2.637
92.554802,1.294,-9.743,2.624
92.56453,1.294,-9.75,2.662
92.574258,1.294,-9.75,2.662
92.583986,1.294,-9.712,2.669
92.593714,1.294,-9.75,2.662
92.603442,1.334,-9.673,2.676
92.61317,1.334,-9.666,2.637
92.622898,1.373,-9.628,2.644
92.632626,1.373,-9.589,2.651
92.642374,1.373,-9.628,2.644
92.652122,1.412,-9.596,2.69
92.66187,1.451,-9.648,2.76
92.671618,1.451,-9.603,2.728
92.681366,1.491,-9.557,2.696
92.691114,1.451,-9.596,2.69
92.700862,1.412,-9.589,2.651
92.71061,1.412,-9.589,2.651
92.720358,1.412,-9.596,2.69
92.730106,1.412,-9.596,2.69
92.739854,1.412,-9.634,2.683
92.749602,1.412,-9.673,2.676
92.75935,1.412,-9.718,2.708
92.769098,1.412,-9.673,2.676
92.778839,1.451,-9.673,2.676
92.78858,1.412,-9.628,2.644
92.798321,1.373,-9.582,2.612
92.808062,1.373,-9.582,2.612
92.817803,1.373,-9.596,2.69
92.827544,1.373,-9.557,2.696
92.837285,1.373,-9.557,2.696
92.847026,1.412,-9.596,2.69
92.856767,1.412,-9.641,2.721
92.866508,1.412,-9.673,2.676
92.876249,1.451,-9.712,2.669
92.88599,1.412,-9.718,2.708
92.895731,1.451,-9.718,2.708
92.905472,1.412,-9.725,2.746
92.9152,1.412,-9.718,2.708
92.924928,1.334,-9.68,2.715
92.934656,1.373,-9.596,2.69
92.944384,1.373,-9.603,2.728
92.954112,1.412,-9.634,2.683
92.96384,1.412,-9.641,2.721
92.973568,1.451,-9.641,2.721
92.983296,1.412,-9.634,2.683
92.993024,1.451,-9.596,2.69
93.002752,1.451,-9.557,2.696
93.01248,1.451,-9.589,2.651
93.022208,1.451,-9.543,2.619
93.031936,1.491,-9.543,2.619
93.041664,1.491,-9.543,2.619
93.051377,1.491,-9.543,2.619
93.06109,1.491,-9.512,2.665
93.070803,1.53,-9.473,2.671
93.080516,1.53,-9.434,2.678
93.090229,1.569,-9.434,2.678
93.099942,1.569,-9.428,2.639
93.109655,1.569,-9.434,2.678
93.119368,1.608,-9.466,2.633
93.129081,1.608,-9.466,2.633
93.138794,1.569,-9.459,2.594
93.148507,1.569,-9.466,2.633
93.15822,1.569,-9.498,2.587
93.167933,1.569,-9.498,2.587
93.177646,1.569,-9.505,2.626
93.18736,1.53,-9.55,2.658
93.197074,1.53,-9.498,2.587
93.206788,1.53,-9.498,2.587
93.216502,1.569,-9.498,2.587
93.226216,1.569,-9.459,2.594
93.23593,1.53,-9.421,2.601
93.245644,1.569,-9.421,2.601
93.255358,1.569,-9.428,2.639
93.265072,1.569,-9.473,2.671
93.274786,1.569,-9.473,2.671
93.2845,1.569,-9.48,2.71
93.294214,1.569,-9.518,2.703
93.303928,1.569,-9.603,2.728
93.313632,1.648,-9.634,2.683
93.323336,1.608,-9.7,2.83
93.33304,1.569,-9.732,2.785
93.342744,1.569,-9.764,2.74
93.352448,1.569,-9.725,2.746
93.362152,1.569,-9.693,2.792
93.371856,1.569,-9.693,2.792
93.38156,1.569,-9.687,2.753
93.391264,1.53,-9.725,2.746
93.400968,1.491,-9.687,2.753
93.410672,1.491,-9.648,2.76
93.420376,1.53,-9.648,2.76
93.43008,1.53,-9.571,2.774
93.439784,1.53,-9.564,2.735
93.449486,1.569,-9.518,2.703
93.459188,1.491,-9.55,2.658
93.46889,1.53,-9.55,2.658
93.478592,1.451,-9.55,2.658
93.488294,1.491,-9.518,2.703
93.497996,1.451,-9.473,2.671
93.507698,1.491,-9.518,2.703
93.5174,1.491,-9.557,2.696
93.527102,1.491,-9.557,2.696
93.536804,1.53,-9.55,2.658
93.546506,1.491,-9.589,2.651
93.556208,1.491,-9.634,2.683
93.56591,1.491,-9.634,2.683
93.575612,1.491,-9.596,2.69
93.585288,1.53,-9.557,2.696
93.594964,1.491,-9.518,2.703
93.60464,1.491,-9.518,2.703
93.614316,1.451,-9.564,2.735
93.623992,1.451,-9.616,2.805
93.633668,1.412,-9.603,2.728
93.643344,1.451,-9.634,2.683
93.65302,1.451,-9.596,2.69
93.662696,1.491,-9.596,2.69
93.672372,1.491,-9.557,2.696
93.682048,1.491,-9.55,2.658
93.691724,1.491,-9.512,2.665
93.7014,1.491,-9.518,2.703
93.711076,1.412,-9.473,2.671
93.720753,1.451,-9.525,2.742
93.73043,1.451,-9.532,2.78
93.740107,1.491,-9.532,2.78
93.749784,1.412,-9.571,2.774
93.759461,1.451,-9.641,2.721
93.769138,1.491,-9.603,2.728
93.778815,1.491,-9.609,2.767
93.788492,1.491,-9.603,2.728
93.798169,1.491,-9.603,2.728
93.807846,1.491,-9.518,2.703
93.817523,1.491,-9.557,2.696
93.8272,1.491,-9.518,2.703
93.836877,1.491,-9.518,2.703
93.846559,1.491,-9.473,2.671
93.856241,1.491,-9.48,2.71
93.865923,1.491,-9.564,2.735
93.875605,1.491,-9.557,2.696
93.885287,1.491,-9.557,2.696
93.894969,1.491,-9.596,2.69
93.904651,1.451,-9.596,2.69
93.914333,1.491,-9.596,2.69
93.924015,1.491,-9.543,2.619
93.933697,1.53,-9.55,2.658
93.943379,1.491,-9.518,2.703
93.953061,1.53,-9.487,2.749
93.962743,1.491,-9.525,2.742
93.972425,1.491,-9.564,2.735
93.982087,1.451,-9.557,2.696
93.991749,1.491,-9.564,2.735
94.001411,1.491,-9.609,2.767
94.011073,1.491,-9.609,2.767
94.020735,1.53,-9.609,2.767
94.030397,1.53,-9.609,2.767
94.040059,1.491,-9.609,2.767
94.049721,1.491,-9.648,2.76
94.059383,1.491,-9.609,2.767
94.069045,1.451,-9.564,2.735
94.078707,1.491,-9.532,2.78
94.088369,1.451,-9.532,2.78
94.098031,1.451,-9.532,2.78
94.107693,1.451,-9.525,2.742
94.117355,1.451,-9.564,2.735
94.127017,1.412,-9.603,2.728
94.136679,1.412,-9.641,2.721
94.146341,1.451,-9.603,2.728
94.156003,1.491,-9.557,2.696
94.165665,1.491,-9.48,2.71
94.175327,1.491,-9.441,2.717
94.184989,1.491,-9.441,2.717
94.194651,1.53,-9.48,2.71
94.204313,1.53,-9.557,2.696
94.213975,1.53,-9.525,2.742
94.223637,1.53,-9.564,2.735
94.233299,1.53,-9.525,2.742
94.242987,1.491,-9.512,2.665
94.252675,1.491,-9.557,2.696
94.262363,1.451,-9.525,2.742
94.272051,1.451,-9.603,2.728
94.281739,1.451,-9.634,2.683
94.291427,1.373,-9.718,2.708
94.301115,1.412,-9.557,2.696
94.310803,1.373,-9.518,2.703
94.320491,1.412,-9.557,2.696
94.330179,1.412,-9.518,2.703
94.339867,1.412,-9.512,2.665
94.349555,1.451,-9.512,2.665
94.359243,1.412,-9.55,2.658
94.368931,1.412,-9.603,2.728
94.378619,1.451,-9.634,2.683
94.388307,1.451,-9.589,2.651
94.397995,1.451,-9.596,2.69
94.407683,1.451,-9.589,2.651
94.417371,1.451,-9.589,2.651
94.427059,1.491,-9.582,2.612
94.436747,1.491,-9.575,2.574
94.446435,1.491,-9.575,2.574
94.456123,1.451,-9.575,2.574
94.465811,1.451,-9.582,2.612
94.475499,1.451,-9.589,2.651
94.485187,1.412,-9.596,2.69
94.494875,1.412,-9.589,2.651
94.504584,1.412,-9.628,2.644
94.514293,1.451,-9.628,2.644
94.524002,1.451,-9.589,2.651
94.533711,1.451,-9.589,2.651
94.54342,1.412,-9.557,2.696
94.553129,1.451,-9.55,2.658
94.562838,1.412,-9.55,2.658
94.572547,1.373,-9.55,2.658
94.582256,1.412,-9.543,2.619
94.591965,1.412,-9.512,2.665
94.601674,1.412,-9.505,2.626
94.611383,1.412,-9.543,2.619
94.621092,1.373,-9.589,2.651
94.630796,1.412,-9.596,2.69
94.6405,1.412,-9.589,2.651
94.650204,1.412,-9.582,2.612
94.659908,1.373,-9.582,2.612
94.669612,1.412,-9.582,2.612
94.679316,1.373,-9.628,2.644
94.68902,1.412,-9.621,2.605
94.698724,1.412,-9.575,2.574
94.708428,1.373,-9.628,2.644
94.718132,1.334,-9.666,2.637
94.727836,1.334,-9.698,2.592
94.73754,1.334,-9.698,2.592
94.747244,1.294,-9.73,2.546
94.756948,1.294,-9.582,2.612
94.766603,1.373,-9.575,2.574
94.776258,1.412,-9.453,2.555
94.785913,1.451,-9.53,2.542
94.795568,1.451,-9.543,2.619
94.805223,1.569,-9.614,2.567
94.814878,1.491,-9.698,2.592
94.824533,1.451,-9.698,2.592
94.834188,1.451,-9.621,2.605
94.843843,1.373,-9.698,2.592
94.853498,1.334,-9.596,2.69
94.863153,1.373,-9.628,2.644
94.872808,1.334,-9.596,2.69
94.882463,1.412,-9.621,2.605
94.892118,1.373,-9.55,2.658
94.901773,1.412,-9.55,2.658
94.911401,1.412,-9.555,2.458
94.921029,1.412,-9.516,2.465
94.930657,1.451,-9.53,2.542
94.940285,1.491,-9.607,2.528
94.949913,1.491,-9.6,2.49
94.959541,1.451,-9.6,2.49
94.969169,1.451,-9.614,2.567
94.978797,1.451,-9.614,2.567
94.988425,1.451,-9.53,2.542
94.998053,1.412,-9.498,2.587
95.007681,1.451,-9.53,2.542
95.017309,1.451,-9.53,2.542
95.026937,1.451,-9.543,2.619
95.036533,1.491,-9.523,2.503
95.046129,1.491,-9.575,2.574
95.055725,1.451,-9.621,2.605
95.065321,1.451,-9.609,2.767
95.074917,1.412,-9.589,2.651
95.084513,1.412,-9.582,2.612
95.094109,1.412,-9.614,2.567
95.103705,1.451,-9.659,2.599
95.113301,1.491,-9.621,2.605
95.122897,1.491,-9.659,2.599
95.132493,1.451,-9.666,2.637
95.142089,1.451,-9.666,2.637
95.151685,1.451,-9.634,2.683
95.161281,1.451,-9.68,2.715
95.170852,1.53,-9.673,2.676
95.180423,1.491,-9.68,2.715
95.189994,1.412,-9.634,2.683
95.199565,1.373,-9.666,2.637
95.209136,1.373,-9.666,2.637
95.218707,1.334,-9.628,2.644
95.228278,1.334,-9.634,2.683
95.237849,1.334,-9.589,2.651
95.24742,1.373,-9.621,2.605
95.256991,1.373,-9.659,2.599
95.266562,1.412,-9.659,2.599
95.276133,1.412,-9.653,2.56
95.285704,1.451,-9.659,2.599
95.295275,1.451,-9.653,2.56
95.30485,1.451,-9.659,2.599
95.314425,1.451,-9.628,2.644
95.324,1.491,-9.505,2.626
95.333575,1.451,-9.498,2.587
95.34315,1.491,-9.498,2.587
95.352725,1.451,-9.537,2.58
95.3623,1.451,-9.498,2.587
95.371875,1.412,-9.498,2.587
95.38145,1.412,-9.498,2.587
95.391025,1.412,-9.575,2.574
95.4006,1.412,-9.575,2.574
95.410175,1.412,-9.53,2.542
95.41975,1.373,-9.575,2.574
95.429324,1.373,-9.614,2.567
95.438898,1.373,-9.575,2.574
95.448472,1.334,-9.575,2.574
95.458046,1.294,-9.537,2.58
95.46762,1.334,-9.537,2.58
95.477194,1.294,-9.575,2.574
95.486768,1.334,-9.621,2.605
95.496342,1.294,-9.628,2.644
95.505916,1.334,-9.628,2.644
95.51549,1.373,-9.634,2.683
95.525064,1.373,-9.634,2.683
95.534638,1.373,-9.596,2.69
95.544212,1.412,-9.596,2.69
95.553786,1.412,-9.596,2.69
95.563373,1.451,-9.603,2.728
95.57296,1.412,-9.634,2.683
95.582547,1.491,-9.634,2.683
95.592134,1.412,-9.582,2.612
95.601721,1.412,-9.596,2.69
95.611308,1.451,-9.596,2.69
95.620895,1.451,-9.603,2.728
95.630482,1.451,-9.603,2.728
95.640069,1.412,-9.641,2.721
95.649656,1.412,-9.641,2.721
95.659243,1.412,-9.641,2.721
95.66883,1.451,-9.68,2.715
95.678417,1.451,-9.634,2.683
95.688004,1.451,-9.589,2.651
95.697585,1.491,-9.603,2.728
95.707166,1.451,-9.596,2.69
95.716747,1.451,-9.525,2.742
95.726328,1.412,-9.564,2.735
95.735909,1.412,-9.596,2.69
95.74549,1.412,-9.564,2.735
95.755071,1.373,-9.55,2.658
95.764652,1.373,-9.582,2.612
95.774233,1.373,-9.582,2.612
95.783814,1.373,-9.582,2.612
95.793395,1.412,-9.543,2.619
95.802976,1.412,-9.55,2.658
95.812557,1.412,-9.512,2.665
95.822138,1.412,-9.55,2.658
95.831753,1.451,-9.557,2.696
95.841368,1.412,-9.557,2.696
95.850983,1.412,-9.512,2.665
95.860598,1.451,-9.543,2.619
95.870213,1.451,-9.582,2.612
95.879828,1.412,-9.55,2.658
95.889443,1.451,-9.596,2.69
95.899058,1.412,-9.557,2.696
95.908673,1.412,-9.512,2.665
95.918288,1.412,-9.512,2.665
95.927903,1.373,-9.55,2.658
95.937518,1.373,-9.557,2.696
95.947133,1.373,-9.603,2.728
95.956751,1.412,-9.596,2.69
95.966369,1.373,-9.641,2.721
95.975987,1.412,-9.603,2.728
95.985605,1.412,-9.648,2.76
95.995223,1.334,-9.641,2.721
96.004841,1.373,-9.603,2.728
96.014459,1.373,-9.564,2.735
96.024077,1.373,-9.596,2.69
96.033695,1.412,-9.596,2.69
96.043313,1.412,-9.557,2.696
96.052931,1.412,-9.55,2.658
96.062549,1.412,-9.543,2.619
96.072167,1.412,-9.557,2.696
96.081785,1.373,-9.557,2.696
96.091403,1.373,-9.557,2.696
96.101048,1.334,-9.603,2.728
96.110693,1.373,-9.628,2.644
96.120338,1.373,-9.55,2.658
96.129983,1.373,-9.55,2.658
96.139628,1.412,-9.557,2.696
96.149273,1.373,-9.557,2.696
96.158918,1.373,-9.589,2.651
96.168563,1.334,-9.589,2.651
96.178208,1.294,-9.596,2.69
96.187853,1.334,-9.557,2.696
96.197498,1.334,-9.603,2.728
96.207143,1.334,-9.564,2.735
96.216788,1.294,-9.564,2.735
96.226485,1.334,-9.616,2.805
96.236182,1.334,-9.637,2.921
96.245879,1.334,-9.623,2.844
96.255576,1.334,-9.662,2.837
96.265273,1.334,-9.616,2.805
96.27497,1.334,-9.609,2.767
96.284667,1.334,-9.609,2.767
96.294364,1.334,-9.609,2.767
96.304061,1.334,-9.609,2.767
96.313758,1.334,-9.603,2.728
96.323455,1.334,-9.609,2.767
96.333152,1.334,-9.603,2.728
96.342849,1.334,-9.596,2.69
96.352551,1.294,-9.582,2.612
96.362253,1.334,-9.518,2.703
96.371955,1.373,-9.55,2.658
96.381657,1.373,-9.557,2.696
96.391359,1.373,-9.596,2.69
96.401061,1.334,-9.596,2.69
96.410763,1.334,-9.634,2.683
96.420465,1.373,-9.673,2.676
96.430167,1.373,-9.68,2.715
96.439869,1.412,-9.621,2.605
96.449571,1.412,-9.628,2.644
96.459273,1.412,-9.543,2.619
96.468975,1.373,-9.505,2.626
96.478677,1.373,-9.512,2.665
96.488379,1.334,-9.512,2.665
96.498109,1.412,-9.525,2.742
96.507839,1.334,-9.564,2.735
96.517569,1.373,-9.603,2.728
96.527299,1.373,-9.634,2.683
96.537029,1.334,-9.634,2.683
96.546759,1.334,-9.596,2.69
96.556489,1.334,-9.634,2.683
96.566219,1.373,-9.634,2.683
96.575949,1.373,-9.634,2.683
96.585679,1.373,-9.628,2.644
96.595409,1.373,-9.589,2.651
96.605139,1.334,-9.596,2.69
96.614869,1.373,-9.634,2.683
96.624599,1.412,-9.603,2.728
96.63433,1.373,-9.582,2.612
96.644061,1.373,-9.543,2.619
96.653792,1.373,-9.537,2.58
96.663523,1.412,-9.582,2.612
96.673254,1.412,-9.537,2.58
96.682985,1.373,-9.543,2.619
96.692716,1.412,-9.582,2.612
96.702447,1.373,-9.543,2.619
96.712178,1.412,-9.543,2.619
96.721909,1.412,-9.582,2.612
96.73164,1.373,-9.543,2.619
96.741371,1.373,-9.543,2.619
96.751102,1.373,-9.582,2.612
96.760833,1.373,-9.568,2.535
96.770587,1.334,-9.575,2.574
96.780341,1.294,-9.628,2.644
96.790095,1.334,-9.673,2.676
96.799849,1.334,-9.673,2.676
96.809603,1.334,-9.712,2.669
96.819357,1.334,-9.705,2.63
96.829111,1.334,-9.705,2.63
96.838865,1.373,-9.666,2.637
96.848619,1.334,-9.673,2.676
96.858373,1.334,-9.666,2.637
96.868127,1.334,-9.634,2.683
96.877881,1.334,-9.634,2.683
96.887635,1.373,-9.589,2.651
96.897387,1.373,-9.621,2.605
96.907139,1.373,-9.582,2.612
96.916891,1.373,-9.589,2.651
96.926643,1.373,-9.582,2.612
96.936395,1.373,-9.589,2.651
96.946147,1.373,-9.628,2.644
96.955899,1.373,-9.628,2.644
96.965651,1.334,-9.705,2.63
96.975403,1.334,-9.698,2.592
96.985155,1.334,-9.659,2.599
96.994907,1.334,-9.705,2.63
97.004659,1.334,-9.705,2.63
97.014411,1.373,-9.666,2.637
97.024163,1.334,-9.621,2.605
97.033931,1.334,-9.55,2.658
97.043699,1.255,-9.55,2.658
97.053467,1.294,-9.55,2.658
97.063235,1.294,-9.55,2.658
97.073003,1.334,-9.55,2.658
97.082771,1.334,-9.512,2.665
97.092539,1.373,-9.512,2.665
97.102307,1.334,-9.512,2.665
97.112075,1.334,-9.55,2.658
97.121843,1.334,-9.557,2.696
97.131611,1.334,-9.55,2.658
97.141379,1.334,-9.589,2.651
97.151147,1.373,-9.589,2.651
97.160924,1.373,-9.589,2.651
97.170701,1.334,-9.589,2.651
97.180478,1.334,-9.634,2.683
97.190255,1.412,-9.562,2.496
97.200032,1.412,-9.575,2.574
97.209809,1.412,-9.582,2.612
97.219586,1.412,-9.582,2.612
97.229363,1.373,-9.55,2.658
97.23914,1.373,-9.55,2.658
97.248917,1.412,-9.55,2.658
97.258694,1.412,-9.557,2.696
97.268471,1.412,-9.55,2.658
97.278248,1.373,-9.557,2.696
97.288025,1.373,-9.596,2.69
97.297796,1.451,-9.603,2.728
97.307567,1.373,-9.641,2.721
97.317338,1.373,-9.634,2.683
97.327109,1.373,-9.634,2.683
97.33688,1.334,-9.596,2.69
97.346651,1.373,-9.603,2.728
97.356422,1.373,-9.596,2.69
97.366193,1.373,-9.564,2.735
97.375964,1.373,-9.564,2.735
97.385735,1.373,-9.564,2.735
97.395506,1.373,-9.564,2.735
97.405277,1.373,-9.564,2.735
97.415048,1.412,-9.564,2.735
97.424819,1.373,-9.603,2.728
97.434602,1.373,-9.557,2.696
97.444385,1.334,-9.55,2.658
97.454168,1.334,-9.557,2.696
97.463951,1.373,-9.564,2.735
97.473734,1.373,-9.532,2.78
97.483517,1.373,-9.525,2.742
97.4933,1.373,-9.532,2.78
97.503083,1.412,-9.532,2.78
97.512866,1.373,-9.532,2.78
97.522649,1.373,-9.578,2.812
97.532432,1.373,-9.578,2.812
97.542215,1.412,-9.571,2.774
97.551998,1.412,-9.609,2.767
97.561778,1.412,-9.693,2.792
97.571558,1.412,-9.693,2.792
97.581338,1.412,-9.584,2.851
97.591118,1.451,-9.578,2.812
97.600898,1.451,-9.532,2.78
97.610678,1.451,-9.5,2.826
97.620458,1.451,-9.493,2.787
97.630238,1.412,-9.532,2.78
97.640018,1.451,-9.578,2.812
97.649798,1.451,-9.578,2.812
97.659578,1.412,-9.578,2.812
97.669358,1.451,-9.493,2.787
97.679138,1.451,-9.532,2.78
97.688918,1.451,-9.571,2.774
97.698685,1.491,-9.518,2.703
97.708452,1.491,-9.564,2.735
97.718219,1.451,-9.518,2.703
97.727986,1.451,-9.564,2.735
97.737753,1.491,-9.518,2.703
97.74752,1.491,-9.487,2.749
97.757287,1.451,-9.48,2.71
97.767054,1.451,-9.518,2.703
97.776821,1.491,-9.518,2.703
97.786588,1.53,-9.518,2.703
97.796355,1.53,-9.564,2.735
97.806122,1.569,-9.603,2.728
97.815889,1.569,-9.578,2.812
97.825656,1.569,-9.571,2.774
97.835425,1.608,-9.557,2.696
97.845194,1.569,-9.557,2.696
97.854963,1.53,-9.564,2.735
97.864732,1.53,-9.564,2.735
97.874501,1.451,-9.564,2.735
97.88427,1.491,-9.525,2.742
97.894039,1.451,-9.525,2.742
97.903808,1.451,-9.571,2.774
97.913577,1.491,-9.532,2.78
97.923346,1.451,-9.525,2.742
97.933115,1.491,-9.518,2.703
97.942884,1.451,-9.603,2.728
97.952653,1.451,-9.641,2.721
97.962421,1.412,-9.582,2.612
97.972189,1.451,-9.628,2.644
97.981957,1.451,-9.641,2.721
97.991725,1.412,-9.641,2.721
98.001493,1.373,-9.596,2.69
98.011261,1.412,-9.596,2.69
98.021029,1.412,-9.55,2.658
98.030797,1.412,-9.55,2.658
98.040565,1.412,-9.543,2.619
98.050333,1.373,-9.557,2.696
98.060101,1.373,-9.589,2.651
98.069869,1.412,-9.55,2.658
98.079637,1.412,-9.596,2.69
98.089405,1.373,-9.634,2.683
98.099168,1.373,-9.628,2.644
98.108931,1.373,-9.589,2.651
98.118694,1.373,-9.589,2.651
98.128457,1.451,-9.621,2.605
98.13822,1.412,-9.582,2.612
98.147983,1.412,-9.582,2.612
98.157746,1.412,-9.505,2.626
98.167509,1.373,-9.505,2.626
98.177272,1.373,-9.473,2.671
98.187035,1.373,-9.466,2.633
98.196798,1.373,-9.55,2.658
98.206561,1.373,-9.55,2.658
98.216324,1.373,-9.596,2.69
98.22606,1.334,-9.596,2.69
98.235796,1.334,-9.596,2.69
98.245532,1.373,-9.634,2.683
98.255268,1.373,-9.628,2.644
98.265004,1.373,-9.641,2.721
98.27474,1.373,-9.634,2.683
98.284476,1.373,-9.634,2.683
98.294212,1.373,-9.603,2.728
98.303948,1.373,-9.596,2.69
98.313684,1.412,-9.596,2.69
98.32342,1.412,-9.628,2.644
98.333156,1.412,-9.596,2.69
98.342892,1.412,-9.589,2.651
98.352628,1.412,-9.596,2.69
98.362354,1.451,-9.543,2.619
98.37208,1.451,-9.512,2.665
98.381806,1.491,-9.557,2.696
98.391532,1.451,-9.589,2.651
98.401258,1.451,-9.589,2.651
98.410984,1.491,-9.543,2.619
98.42071,1.491,-9.505,2.626
98.430436,1.491,-9.543,2.619
98.440162,1.491,-9.505,2.626
98.449888,1.491,-9.505,2.626
98.459614,1.491,-9.505,2.626
98.46934,1.491,-9.505,2.626
98.479066,1.491,-9.55,2.658
98.488759,1.451,-9.575,2.574
98.498452,1.491,-9.582,2.612
98.508145,1.569,-9.621,2.605
98.517838,1.53,-9.634,2.683
98.527531,1.53,-9.628,2.644
98.537224,1.53,-9.589,2.651
98.546917,1.53,-9.557,2.696
98.55661,1.491,-9.55,2.658
98.566303,1.53,-9.55,2.658
98.575996,1.53,-9.55,2.658
98.585689,1.53,-9.55,2.658
98.595382,1.569,-9.55,2.658
98.605075,1.569,-9.55,2.658
98.614768,1.569,-9.582,2.612
98.624454,1.491,-9.575,2.574
98.63414,1.491,-9.589,2.651
98.643826,1.53,-9.575,2.574
98.653512,1.53,-9.582,2.612
98.663198,1.53,-9.621,2.605
98.672884,1.53,-9.621,2.605
98.68257,1.53,-9.582,2.612
98.692256,1.53,-9.614,2.567
98.701942,1.491,-9.621,2.605
98.711628,1.53,-9.614,2.567
98.721314,1.569,-9.543,2.619
98.731,1.53,-9.512,2.665
98.740686,1.53,-9.505,2.626
98.750346,1.491,-9.525,2.742
98.760006,1.491,-9.557,2.696
98.769666,1.491,-9.621,2.605
98.779326,1.53,-9.621,2.605
98.788986,1.491,-9.621,2.605
98.798646,1.491,-9.575,2.574
98.808306,1.491,-9.575,2.574
98.817966,1.491,-9.537,2.58
98.827626,1.451,-9.543,2.619
98.837286,1.451,-9.582,2.612
98.846946,1.451,-9.543,2.619
98.856606,1.451,-9.543,2.619
98.866266,1.491,-9.543,2.619
98.875926,1.451,-9.575,2.574
98.885553,1.53,-9.589,2.651
98.89518,1.451,-9.575,2.574
98.904807,1.412,-9.582,2.612
98.914434,1.451,-9.628,2.644
98.924061,1.491,-9.589,2.651
98.933688,1.451,-9.582,2.612
98.943315,1.491,-9.628,2.644
98.952942,1.491,-9.543,2.619
98.962569,1.491,-9.543,2.619
98.972196,1.451,-9.505,2.626
98.981823,1.451,-9.466,2.633
98.99145,1.491,-9.512,2.665
99.001077,1.491,-9.55,2.658
99.010704,1.491,-9.55,2.658
99.020304,1.451,-9.582,2.612
99.029904,1.491,-9.582,2.612
99.039504,1.451,-9.628,2.644
99.049104,1.451,-9.589,2.651
99.058704,1.451,-9.596,2.69
99.068304,1.451,-9.589,2.651
99.077904,1.451,-9.628,2.644
99.087504,1.451,-9.596,2.69
99.097104,1.451,-9.596,2.69
99.106704,1.491,-9.55,2.658
99.116304,1.491,-9.557,2.696
99.125904,1.451,-9.55,2.658
99.135504,1.451,-9.557,2.696
99.145104,1.491,-9.557,2.696
99.154707,1.53,-9.557,2.696
99.16431,1.569,-9.55,2.658
99.173913,1.53,-9.596,2.69
99.183516,1.491,-9.596,2.69
99.193119,1.491,-9.603,2.728
99.202722,1.491,-9.518,2.703
99.212325,1.53,-9.518,2.703
99.221928,1.53,-9.55,2.658
99.231531,1.491,-9.55,2.658
99.241134,1.53,-9.473,2.671
99.250737,1.53,-9.473,2.671
99.26034,1.491,-9.557,2.696
99.269943,1.53,-9.557,2.696
99.279542,1.491,-9.557,2.696
99.289141,1.53,-9.596,2.69
99.29874,1.53,-9.564,2.735
99.308339,1.53,-9.564,2.735
99.317938,1.491,-9.571,2.774
99.327537,1.491,-9.571,2.774
99.337136,1.491,-9.564,2.735
99.346735,1.53,-9.571,2.774
99.356334,1.53,-9.564,2.735
99.365933,1.53,-9.564,2.735
99.375532,1.569,-9.571,2.774
99.385131,1.53,-9.564,2.735
99.39473,1.569,-9.603,2.728
99.404329,1.569,-9.596,2.69
99.413942,1.608,-9.557,2.696
99.423555,1.648,-9.616,2.805
99.433168,1.608,-9.603,2.728
99.442781,1.608,-9.603,2.728
99.452394,1.648,-9.634,2.683
99.462007,1.687,-9.634,2.683
99.47162,1.648,-9.589,2.651
99.481233,1.687,-9.55,2.658
99.490846,1.726,-9.55,2.658
99.500459,1.687,-9.603,2.728
99.510072,1.687,-9.564,2.735
99.519685,1.687,-9.518,2.703
99.529298,1.687,-9.518,2.703
99.538911,1.648,-9.48,2.71
99.548519,1.648,-9.428,2.639
99.558127,1.608,-9.473,2.671
99.567735,1.608,-9.557,2.696
99.577343,1.608,-9.525,2.742
99.586951,1.608,-9.609,2.767
99.596559,1.608,-9.603,2.728
99.606167,1.608,-9.648,2.76
99.615775,1.608,-9.609,2.767
99.625383,1.608,-9.603,2.728
99.634991,1.648,-9.564,2.735
99.644599,1.608,-9.603,2.728
99.654207,1.648,-9.564,2.735
99.663815,1.648,-9.603,2.728
99.673423,1.648,-9.564,2.735
99.683061,1.648,-9.532,2.78
99.692699,1.648,-9.525,2.742
99.702337,1.687,-9.518,2.703
99.711975,1.726,-9.518,2.703
99.721613,1.726,-9.518,2.703
99.731251,1.765,-9.512,2.665
99.740889,1.804,-9.518,2.703
99.750527,1.804,-9.512,2.665
99.760165,1.804,-9.557,2.696
99.769803,1.804,-9.518,2.703
99.779441,1.804,-9.525,2.742
99.789079,1.804,-9.518,2.703
99.798717,1.804,-9.557,2.696
99.808382,1.844,-9.641,2.721
99.818047,1.883,-9.596,2.69
99.827712,1.883,-9.596,2.69
99.837377,1.922,-9.634,2.683
99.847042,1.961,-9.621,2.605
99.856707,1.922,-9.628,2.644
99.866372,1.922,-9.589,2.651
99.876037,1.922,-9.589,2.651
99.885702,1.922,-9.55,2.658
99.895367,1.922,-9.543,2.619
99.905032,1.961,-9.543,2.619
99.914697,1.961,-9.55,2.658
99.924362,1.961,-9.596,2.69
99.934027,1.961,-9.55,2.658
99.943697,1.922,-9.589,2.651
99.953367,1.922,-9.589,2.651
99.963037,1.922,-9.537,2.58
99.972707,1.961,-9.498,2.587
99.982377,1.922,-9.491,2.549
99.992047,1.922,-9.459,2.594
100.001717,1.883,-9.414,2.562
100.011387,1.922,-9.414,2.562
100.021057,1.922,-9.375,2.569
100.030727,1.961,-9.414,2.562
100.040397,1.961,-9.414,2.562
100.050067,1.922,-9.434,2.678
100.059737,1.922,-9.466,2.633
100.069407,2.001,-9.466,2.633
100.079073,2.001,-9.498,2.587
100.088739,2.001,-9.491,2.549
100.098405,2.001,-9.53,2.542
100.108071,2.04,-9.491,2.549
100.117737,2.079,-9.453,2.555
100.127403,2.118,-9.453,2.555
100.137069,2.118,-9.414,2.562
100.146735,2.118,-9.414,2.562
100.156401,2.118,-9.421,2.601
100.166067,2.118,-9.466,2.633
100.175733,2.118,-9.434,2.678
100.185399,2.118,-9.48,2.71
100.195065,2.079,-9.48,2.71
100.204731,2.079,-9.487,2.749
100.214399,2.079,-9.434,2.678
100.224067,2.04,-9.403,2.724
100.233735,2.04,-9.403,2.724
100.243403,2.001,-9.364,2.73
100.253071,2.001,-9.364,2.73
100.262739,1.961,-9.371,2.769
100.272407,1.961,-9.371,2.769
100.282075,1.922,-9.364,2.73
100.291743,1.922,-9.357,2.692
100.301411,1.922,-9.364,2.73
100.311079,1.922,-9.357,2.692
100.320747,1.922,-9.364,2.73
100.330415,1.922,-9.364,2.73
100.340083,1.922,-9.364,2.73
100.349778,1.922,-9.409,2.762
100.359473,2.001,-9.403,2.724
100.369168,2.001,-9.409,2.762
100.378863,2.001,-9.403,2.724
100.388558,1.961,-9.448,2.755
100.398253,1.961,-9.455,2.794
100.407948,1.961,-9.493,2.787
100.417643,1.922,-9.493,2.787
100.427338,1.922,-9.487,2.749
100.437033,1.922,-9.525,2.742
100.446728,1.922,-9.525,2.742
100.456423,1.883,-9.455,2.794
100.466118,1.883,-9.455,2.794
100.475823,1.844,-9.441,2.717
100.485528,1.804,-9.409,2.762
100.495233,1.804,-9.416,2.801
100.504938,1.765,-9.416,2.801
100.514643,1.726,-9.378,2.808
100.524348,1.648,-9.378,2.808
100.534053,1.608,-9.378,2.808
100.543758,1.608,-9.423,2.839
100.553463,1.569,-9.384,2.846
100.563168,1.53,-9.423,2.839
100.572873,1.53,-9.462,2.833
100.582578,1.491,-9.462,2.833
100.592283,1.491,-9.468,2.871
100.601988,1.451,-9.43,2.878
100.611705,1.373,-9.384,2.846
100.621422,1.412,-9.423,2.839
100.631139,1.451,-9.468,2.871
100.640856,1.451,-9.514,2.903
100.650573,1.491,-9.552,2.896
100.66029,1.491,-9.591,2.889
100.670007,1.53,-9.637,2.921
100.679724,1.53,-9.598,2.928
100.689441,1.569,-9.637,2.921
100.699158,1.569,-9.637,2.921
100.708875,1.569,-9.643,2.96
100.718592,1.569,-9.598,2.928
100.728309,1.569,-9.552,2.896
100.738026,1.608,-9.546,2.858
100.747776,1.53,-9.559,2.935
100.757526,1.53,-9.591,2.889
100.767276,1.491,-9.63,2.883
100.777026,1.373,-9.643,2.96
100.786776,1.138,-9.682,2.953
100.796526,0.824,-9.78,3.055
100.806276,0.471,-9.909,3.112
100.816026,0.275,-10.161,3.187
100.825776,0.118,-10.239,3.174
100.835526,0.118,-10.305,3.321
100.845276,0.118,-10.357,3.392
100.855026,0.039,-10.377,3.508
100.864776,0.039,-10.398,3.624
100.874543,0.078,-10.386,3.785
100.88431,0.196,-10.27,3.805
100.894077,0.353,-10.116,3.833
100.903844,0.628,-9.993,3.814
100.913611,0.902,-10.025,3.769
100.923378,1.098,-9.986,3.776
100.933145,1.294,-10.032,3.808
100.942912,1.53,-9.993,3.814
100.952679,1.726,-9.909,3.789
100.962446,1.961,-9.734,3.701
100.972213,2.079,-9.521,3.619
100.98198,2.197,-9.325,3.414
100.991747,2.314,-9.157,3.364
101.001514,2.432,-9.13,3.21
101.011271,2.55,-9.078,3.139
101.021028,2.667,-9.064,3.062
101.030785,2.785,-9.082,2.939
101.040542,2.981,-9.146,2.849
101.050299,3.06,-9.132,2.771
101.060056,3.138,-9.119,2.694
101.069813,3.138,-9.105,2.617
101.07957,3.138,-9.13,2.533
101.089327,3.177,-9.162,2.487
101.099084,3.217,-9.257,2.351
101.108841,3.217,-9.321,2.26
101.118598,3.256,-9.307,2.183
101.128355,3.295,-9.294,2.105
101.138112,3.295,-9.403,2.046
101.147869,3.295,-9.382,1.931
101.157635,3.256,-9.375,1.892
101.167401,3.217,-9.33,1.86
101.177167,3.177,-9.278,1.79
101.186933,3.138,-9.271,1.751
101.196699,3.099,-9.271,1.751
101.206465,3.06,-9.264,1.712
101.216231,3.06,-9.289,1.628
101.225997,3.02,-9.321,1.583
101.235763,2.981,-9.321,1.583
101.245529,3.02,-9.346,1.499
101.255295,2.981,-9.448,1.401
101.265061,2.981,-9.564,1.381
101.274827,3.02,-9.673,1.322
101.284571,2.903,-9.771,1.424
101.294315,2.903,-9.796,1.34
101.304059,2.903,-9.803,1.378
101.313803,2.903,-9.841,1.372
101.323547,2.942,-9.803,1.378
101.333291,2.981,-9.719,1.353
101.343035,3.02,-9.635,1.328
101.352779,3.099,-9.603,1.374
101.362523,3.099,-9.512,1.31
101.372267,3.099,-9.512,1.31
101.382011,3.138,-9.544,1.265
101.391755,3.138,-9.582,1.258
101.401499,3.138,-9.614,1.212
101.411243,3.138,-9.73,1.192
101.420996,3.099,-9.716,1.115
101.430749,3.06,-9.678,1.122
101.440502,3.06,-9.71,1.076
101.450255,2.981,-9.689,0.96
101.460008,2.942,-9.605,0.935
101.469761,2.824,-9.553,0.865
101.479514,2.707,-9.585,0.819
101.489267,2.628,-9.616,0.774
101.49902,2.511,-9.687,0.722
101.508773,2.471,-9.68,0.683
101.518526,2.432,-9.666,0.606
101.528279,2.314,-9.628,0.613
101.538032,2.197,-9.621,0.574
101.547768,2.04,-9.551,0.626
101.557504,1.961,-9.582,0.581
101.56724,1.844,-9.621,0.574
101.576976,1.648,-9.66,0.567
101.586712,1.569,-9.794,0.424
101.596448,1.373,-9.987,0.39
101.606184,1.294,-10.025,0.383
101.61592,1.177,-10.012,0.306
101.625656,1.059,-10.128,0.285
101.635392,1.02,-10.198,0.233
101.645128,0.981,-10.178,0.117
101.654864,0.981,-10.139,0.124
101.6646,1.02,-10.048,0.06
101.674336,0.941,-9.957,-0.003
101.684051,0.941,-9.923,-0.196
101.693766,0.863,-9.987,-0.287
101.703481,0.706,-10.019,-0.333
101.713196,0.588,-9.998,-0.449
101.722911,0.431,-9.901,-0.551
101.732626,0.235,-9.901,-0.551
101.742341,0.118,-9.912,-0.712
101.752056,0,-9.898,-0.789
101.761771,-0.118,-9.873,-0.705
101.771486,-0.157,-9.828,-0.737
101.781201,-0.235,-9.853,-0.821
101.790916,-0.353,-9.878,-0.905
101.800631,-0.431,-9.948,-0.958
101.810346,-0.392,-10.005,-1.087
101.820034,-0.392,-9.994,-0.926
101.829722,-0.431,-10.019,-1.01
101.83941,-0.392,-9.967,-1.08
101.849098,-0.314,-10.012,-1.048
101.858786,-0.314,-9.967,-1.08
101.868474,-0.235,-9.889,-1.067
101.878162,-0.157,-9.889,-1.067
101.88785,-0.118,-9.851,-1.06
101.897538,-0.078,-9.735,-1.039
101.907226,-0.039,-9.573,-1.051
101.916914,0.039,-9.489,-1.076
101.926602,0.118,-9.528,-1.083
101.93629,0.157,-9.785,-1.208
101.945978,0.196,-10.126,-1.307
101.955661,0.196,-10.357,-1.348
101.965344,0.275,-10.351,-1.387
101.975027,0.157,-10.435,-1.362
101.98471,0.118,-10.596,-1.351
101.994393,0,-10.757,-1.339
102.004076,-0.078,-10.655,-1.241
102.013759,-0.078,-10.437,-1.123
102.023442,-0.078,-10.212,-1.044
102.033125,-0.078,-10.064,-0.978
102.042808,-0.039,-9.948,-0.958
102.052491,-0.078,-9.826,-0.976
102.062174,-0.157,-9.742,-1.001
102.071857,-0.196,-9.685,-0.871
102.081532,-0.275,-9.692,-0.833
102.091207,-0.275,-9.737,-0.801
102.100882,-0.353,-9.783,-0.769
102.110557,-0.314,-9.705,-0.755
102.120232,-0.392,-9.667,-0.749
102.129907,-0.471,-9.751,-0.724
102.139582,-0.588,-9.873,-0.705
102.149257,-0.667,-9.996,-0.687
102.158932,-0.785,-10.157,-0.676
102.168607,-0.824,-10.242,-0.651
102.178282,-0.824,-10.242,-0.651
102.187957,-0.824,-10.171,-0.598
102.197632,-0.824,-10.164,-0.637
102.207307,-0.863,-10.126,-0.63
102.216976,-0.863,-10.189,-0.721
102.226645,-0.981,-10.305,-0.742
102.236314,-1.059,-10.305,-0.742
102.245983,-1.059,-10.273,-0.696
102.255652,-1.059,-10.203,-0.644
102.265321,-0.981,-10.119,-0.669
102.27499,-0.941,-10.028,-0.733
102.284659,-0.863,-9.944,-0.758
102.294328,-0.745,-9.796,-0.692
102.303997,-0.628,-9.86,-0.783
102.313666,-0.588,-9.828,-0.737
102.323335,-0.431,-9.948,-0.958
102.333004,-0.235,-10.128,-1.069
102.342673,-0.078,-10.237,-1.128
102.352358,0.157,-10.135,-1.03
102.362043,0.353,-10.053,-0.817
102.371728,0.588,-9.814,-0.814
102.381413,0.785,-9.551,-0.728
102.391098,0.941,-9.523,-0.883
102.400783,1.098,-9.58,-1.012
102.410468,1.255,-9.548,-0.967
102.420153,1.412,-9.594,-0.935
102.429838,1.608,-9.562,-0.889
102.439523,1.687,-9.73,-0.839
102.449208,1.804,-10.005,-1.087
102.458893,1.922,-9.994,-0.926
102.468578,1.922,-10.151,-0.714
102.478283,1.961,-9.923,-0.873
102.487988,1.922,-9.776,-0.808
102.497693,1.961,-9.751,-0.724
102.507398,2.079,-9.796,-0.692
102.517103,2.157,-9.905,-0.751
102.526808,2.236,-9.976,-0.803
102.536513,2.275,-10.014,-0.81
102.546218,2.354,-10.014,-0.81
102.555923,2.354,-10.105,-0.746
102.565628,2.314,-9.996,-0.687
102.575333,2.314,-9.932,-0.596
102.585038,2.275,-9.887,-0.628
102.594743,2.236,-9.855,-0.583
102.604448,2.275,-9.901,-0.551
102.614153,2.197,-9.869,-0.505
102.623867,2.157,-9.953,-0.48
102.633581,2.157,-9.978,-0.564
102.643295,2.236,-9.914,-0.474
102.653009,2.393,-9.896,-0.351
102.662723,2.824,-10.003,-0.648
102.672437,3.138,-9.728,-0.401
102.682151,3.648,-9.817,-0.576
102.691865,3.962,-9.458,-0.353
102.701579,4.433,-9.698,-0.794
102.711293,4.59,-9.114,-0.492
102.721007,5.335,-9.41,-0.624
102.730721,6.041,-9.621,-0.78
102.740435,6.865,-9.701,-0.555
102.750129,7.414,-9.439,-0.23
102.759823,7.532,-9.069,0.154
102.769517,7.649,-8.751,0.608
102.779211,7.453,-8.785,0.801
102.788905,7.1,-9.066,1.269
102.798599,6.59,-9.662,1.483
102.808293,6.002,-9.684,1.837
102.817987,5.609,-9.718,2.031
102.827681,5.06,-10.096,2.362
102.837375,4.511,-10.375,2.592
102.847069,3.883,-10.725,2.769
102.856763,3.138,-10.836,2.949
102.866457,2.393,-10.791,2.917
102.876151,1.883,-10.623,2.867
102.885856,1.334,-10.321,2.96
102.895561,0.824,-9.527,2.98
102.905266,0.471,-9.35,2.653
102.914971,0.118,-9.518,2.703
102.924676,0,-9.409,2.762
102.934381,-0.157,-9.209,2.758
102.944086,-0.431,-8.989,2.637
102.953791,-1.02,-9.187,2.403
102.963496,-1.412,-9.898,1.919
102.973201,-1.569,-10.553,1.565
102.982906,-1.53,-11.021,1.283
102.992611,-1.451,-11.046,1.199
103.002316,-1.255,-10.671,1.106
103.012029,-1.098,-10.5,0.817
103.021742,-1.098,-10.325,0.729
103.031455,-0.981,-10.125,0.724
103.041168,-0.941,-10.148,0.401
103.050881,-0.941,-9.787,0.385
103.060594,-0.981,-10.003,0.029
103.070307,-1.098,-10.21,0.072
103.08002,-1.059,-9.862,0.133
103.089733,-0.941,-9.937,-0.119
103.099446,-0.824,-10.014,-0.133
103.109159,-0.785,-10.471,-0.253
103.118872,-0.745,-10.514,-0.46
103.128585,-0.785,-10.416,-0.562
103.138298,-0.941,-10.319,-0.664
103.147992,-1.02,-10.144,-0.753
103.157686,-1.138,-10.028,-0.733
103.16738,-1.098,-9.951,-0.719
103.177074,-1.059,-9.76,-0.446
103.186768,-1.177,-9.76,-0.446
103.196462,-1.451,-9.953,-0.48
103.206156,-1.883,-10.255,-0.573
103.21585,-2.275,-10.694,-0.571
103.225544,-2.589,-10.748,-0.262
103.235238,-2.785,-10.66,-0.087
103.244932,-2.824,-10.55,-0.028
103.254626,-2.785,-10.48,0.024
103.26432,-2.589,-10.5,0.14
103.274014,-2.314,-10.423,0.154
103.283726,-2.118,-10.41,0.076
103.293438,-1.961,-10.469,0.186
103.30315,-1.726,-10.307,0.174
103.312862,-1.412,-10.016,0.106
103.322574,-1.098,-10.007,-0.171
103.332286,-0.745,-10.244,-0.412
103.341998,-0.471,-10.23,-0.489
103.35171,-0.235,-10.087,-0.623
103.361422,0,-9.898,-0.789
103.371134,0.157,-9.569,-0.851
103.380846,0.314,-9.401,-0.901
103.390558,0.51,-9.201,-0.905
103.40027,0.628,-9.194,-0.944
103.409998,0.588,-9.328,-1.087
103.419726,0.706,-9.41,-1.301
103.429454,0.785,-9.308,-1.203
103.439182,0.863,-9.178,-1.26
103.44891,0.902,-9.119,-1.369
103.458638,0.902,-9.176,-1.498
103.468366,0.863,-9.478,-1.592
103.478094,0.785,-9.858,-1.698
103.487822,0.667,-10.076,-1.816
103.49755,0.549,-10.16,-1.791
103.507278,0.392,-10.121,-1.785
103.517006,0.196,-10.16,-1.791
103.526734,0.118,-10.167,-1.753
103.536462,0,-10.16,-1.791
103.546181,-0.039,-10.069,-1.855
103.5559,-0.118,-9.946,-1.873
103.565619,-0.196,-9.883,-1.782
103.575338,-0.353,-9.767,-1.762
103.585057,-0.431,-9.599,-1.812
103.594776,-0.51,-9.437,-1.823
103.604495,-0.628,-9.392,-1.855
103.614214,-0.706,-9.515,-1.837
103.623933,-0.785,-9.462,-1.907
103.633652,-0.745,-9.455,-1.946
103.643371,-0.706,-9.442,-2.023
103.65309,-0.706,-9.396,-2.055
103.662809,-0.667,-9.39,-2.094
103.672528,-0.706,-9.274,-2.073
103.682243,-0.706,-9.235,-2.067
103.691958,-0.824,-9.235,-2.067
103.701673,-1.02,-9.287,-1.996
103.711388,-1.098,-9.41,-1.978
103.721103,-1.177,-9.442,-2.023
103.730818,-1.334,-9.526,-1.998
103.740533,-1.451,-9.578,-1.928
103.750248,-1.608,-9.669,-1.864
103.759963,-1.804,-9.812,-1.73
103.769678,-1.961,-9.903,-1.667
103.779393,-2.079,-10.096,-1.701
103.789108,-2.275,-10.187,-1.637
103.798823,-2.393,-10.105,-1.423
103.808538,-2.511,-9.778,-1.246
103.818227,-2.471,-9.553,-1.167
103.827916,-2.275,-9.503,-0.999
103.837605,-2.001,-9.439,-0.908
103.847294,-1.687,-9.498,-0.799
103.856983,-1.412,-9.519,-0.683
103.866672,-1.294,-9.539,-0.567
103.876361,-1.02,-9.887,-0.628
103.88605,-0.706,-10.582,-0.751
103.895739,-0.431,-10.925,-0.612
103.905428,-0.078,-10.869,-0.482
103.915117,0.314,-10.721,-0.417
103.924806,0.588,-10.58,-0.312
103.934495,0.785,-10.305,-0.064
103.944184,0.863,-10.266,-0.058
103.953883,1.02,-10.382,-0.078
103.963582,1.098,-10.3,0.136
103.973281,1.294,-10.019,0.345
103.98298,1.294,-9.569,0.504
103.992679,1.451,-9.042,0.676
104.002378,1.608,-8.546,0.803
104.012077,1.687,-8.103,1.001
104.021776,1.726,-7.814,1.171
104.031475,1.804,-7.835,1.287
104.041174,1.844,-8.03,1.492
104.050873,1.922,-8.426,1.701
104.060572,1.961,-8.923,1.812
104.070271,2.04,-9.28,2.028
104.079985,2.197,-9.45,2.317
104.089699,2.236,-9.632,2.444
104.099413,2.275,-9.859,2.603
104.109127,2.354,-10.196,2.703
104.118841,2.432,-10.532,2.803
104.128555,2.471,-10.734,3.046
104.138269,2.667,-10.891,3.258
104.147983,2.824,-11.079,3.424
104.157697,2.942,-11.184,3.565
104.167411,3.02,-11.12,3.655
104.177125,3.099,-10.818,3.749
104.186839,3.06,-10.509,3.803
104.196553,2.903,-10.348,3.792
104.206267,2.746,-10.341,3.753
104.21597,2.628,-10.295,3.721
104.225673,2.471,-10.159,3.626
104.235376,2.393,-9.984,3.537
104.245079,2.314,-9.693,3.469
104.254782,2.275,-9.357,3.369
104.264485,2.236,-9.028,3.308
104.274188,2.236,-8.768,3.194
104.283891,2.157,-8.632,3.098
104.293594,2.079,-8.644,2.937
104.303297,1.961,-8.791,2.871
104.313,1.883,-8.907,2.851
104.322703,1.804,-8.939,2.805
104.332406,1.804,-8.984,2.837
104.342109,1.844,-9.03,2.869
104.351821,1.844,-9.082,2.939
104.361533,1.765,-9.139,2.81
104.371245,1.687,-9.275,2.905
104.380957,1.648,-9.334,3.014
104.390669,1.53,-9.471,3.11
104.400381,1.53,-9.639,3.16
104.410093,1.53,-9.768,3.217
104.419805,1.569,-9.807,3.21
104.429517,1.687,-9.839,3.164
104.439229,1.765,-9.8,3.171
104.448941,1.844,-9.723,3.185
104.458653,1.883,-9.825,3.087
104.468365,1.844,-9.909,3.112
104.478082,1.804,-9.955,3.144
104.487799,1.726,-10.071,3.124
104.497516,1.687,-10.218,3.058
104.507233,1.687,-10.309,3.121
104.51695,1.648,-10.348,3.115
104.526667,1.648,-10.373,3.03
104.536384,1.687,-10.411,3.024
104.546101,1.765,-10.521,2.965
104.555818,1.804,-10.823,2.871
104.565535,1.726,-11.184,2.887
104.575252,1.648,-11.307,2.906
104.584969,1.648,-11.191,2.926
104.594686,1.608,-11.075,2.946
104.604403,1.491,-11.005,2.999
104.614117,1.334,-10.945,2.89
104.623831,1.216,-11.016,2.837
104.633545,1.177,-11.393,2.492
104.643259,0.941,-12.307,2.251
104.652973,0.667,-12.579,2.442
104.662687,0.667,-11.866,2.688
104.672401,0.628,-10.893,2.819
104.682115,0.549,-10.261,2.851
104.691829,0.392,-9.752,2.901
104.701543,0.235,-9.275,2.905
104.711257,0.078,-9.157,2.687
104.720971,-0.157,-9.453,2.555
104.730685,-0.392,-9.703,2.392
104.740399,-0.628,-9.766,2.301
104.750089,-0.745,-9.584,2.174
104.759779,-0.824,-9.423,2.162
104.769469,-0.941,-9.43,2.201
104.779159,-0.941,-9.371,2.092
104.788849,-0.902,-9.434,2.001
104.798539,-0.785,-9.484,1.833
104.808229,-0.824,-9.594,1.774
104.817919,-0.706,-9.412,1.646
104.827609,-0.706,-9.153,1.533
104.837299,-0.706,-8.932,1.412
104.846989,-0.667,-8.726,1.369
104.856679,-0.588,-8.532,1.403
104.866369,-0.588,-8.326,1.36
104.876059,-0.51,-8.242,1.335
104.885731,-0.392,-8.151,1.271
104.895403,-0.275,-8.208,1.142
104.905075,-0.196,-8.271,1.051
104.914747,-0.118,-8.412,0.946
104.924419,0,-8.553,0.842
104.934091,-0.039,-8.687,0.699
104.943763,-0.078,-8.88,0.665
104.953435,-0.078,-8.982,0.567
104.963107,-0.157,-8.976,0.528
104.972779,-0.157,-8.892,0.503
104.982451,-0.196,-9.001,0.444
104.992123,-0.235,-9.155,0.417
105.001795,-0.235,-9.271,0.397
105.011467,-0.235,-9.296,0.313
105.021117,-0.157,-9.387,0.376
105.030767,-0.078,-9.58,0.342
105.040417,-0.039,-9.805,0.263
105.050067,0.078,-9.657,0.329
105.059717,0.196,-9.753,0.192
105.069367,0.157,-10.01,0.067
105.079017,0.157,-10.435,-0.008
105.088667,0.157,-10.719,0.022
105.098317,0.275,-11.2,-0.182
105.107967,0.275,-11.684,-0.148
105.117617,0.353,-11.821,-0.053
105.127267,0.471,-12.143,-0.03
105.136917,0.51,-12.773,-0.3
105.146567,0.549,-13.745,-0.432
105.156217,0.471,-14.141,-0.223
105.165867,0.667,-13.582,-0.005
105.175517,0.785,-12.907,0.234
105.185167,0.824,-12.348,0.452
105.194817,0.981,-11.964,0.758
105.204467,1.177,-11.816,0.824
105.214117,1.334,-11.271,1.12
105.223767,1.648,-10.646,1.19
105.233417,1.844,-10.432,1.108
105.243067,1.922,-10.394,1.115
105.252717,1.961,-10.323,1.167
105.262367,2.118,-10.141,1.04
105.272017,2.04,-10.23,0.865
105.281658,1.883,-10.262,0.819
105.291299,1.804,-9.907,0.842
105.30094,1.687,-9.507,0.833
105.310581,1.53,-9.255,0.758
105.320222,1.294,-9.216,0.765
105.329863,1.138,-9.203,0.688
105.339504,1.02,-9.042,0.676
105.349145,0.902,-8.867,0.587
105.358786,0.785,-8.621,0.551
105.368427,0.706,-8.485,0.456
105.378068,0.706,-8.355,0.399
105.387709,0.706,-8.317,0.406
105.39735,0.706,-8.271,0.374
105.406991,0.667,-8.328,0.244
105.416625,0.628,-8.43,0.147
105.426259,0.667,-8.553,0.165
105.435893,0.667,-8.539,0.088
105.445527,0.667,-8.519,-0.028
105.455161,0.667,-8.428,-0.092
105.464795,0.628,-8.344,-0.117
105.474429,0.667,-8.305,-0.11
105.484063,0.628,-8.337,-0.156
105.493697,0.588,-8.499,-0.144
105.503331,0.51,-8.692,-0.178
105.512965,0.549,-8.994,-0.271
105.522599,0.471,-9.144,-0.099
105.532233,0.51,-8.989,-0.071
105.541867,0.51,-8.983,-0.11
105.551517,0.549,-9.194,-0.267
105.561167,0.392,-9.607,-0.18
105.570817,0.549,-9.973,-0.364
105.580467,0.667,-10.223,-0.528
105.590117,0.745,-10.403,-0.639
105.599767,0.745,-10.526,-0.621
105.609417,0.745,-10.596,-0.673
105.619067,0.745,-11.007,-0.826
105.628717,0.628,-11.541,-0.96
105.638367,0.549,-11.875,-1.098
105.648017,0.549,-12.171,-1.23
105.657667,0.51,-12.223,-1.159
105.667317,0.51,-12.307,-1.134
105.676983,0.431,-12.609,-1.228
105.686649,0.353,-13.009,-1.218
105.696315,0.235,-13.234,-1.298
105.705981,0.157,-13.362,-1.48
105.715647,0.039,-13.259,-1.382
105.725313,-0.039,-12.193,-0.875
105.734979,0.039,-11.171,-0.576
105.744645,0,-10.637,-0.442
105.754311,-0.157,-10.437,-0.446
105.763977,-0.314,-10.637,-0.442
105.773643,-0.353,-10.353,-0.471
105.783309,-0.431,-10.453,-0.807
105.792975,-0.628,-10.362,-0.871
105.802641,-0.706,-10.014,-0.81
105.812318,-0.785,-9.839,-0.898
105.821995,-0.981,-9.878,-0.905
105.831672,-1.138,-9.885,-0.867
105.841349,-1.177,-9.446,-0.869
105.851026,-1.177,-8.912,-0.735
105.860703,-1.216,-8.596,-0.719
105.87038,-1.255,-8.41,-0.646
105.880057,-1.216,-8.34,-0.594
105.889734,-1.177,-8.217,-0.612
105.899411,-1.177,-8.255,-0.619
105.909088,-1.138,-8.319,-0.71
105.918765,-1.02,-8.312,-0.749
105.928442,-0.941,-8.267,-0.781
105.938119,-0.863,-8.221,-0.812
105.947828,-0.745,-8.26,-0.819
105.957537,-0.667,-8.292,-0.865
105.967246,-0.588,-8.401,-0.924
105.976955,-0.588,-8.51,-0.983
105.986664,-0.549,-8.51,-0.983
105.996373,-0.51,-8.549,-0.99
106.006082,-0.51,-8.542,-1.028
106.015791,-0.471,-8.696,-1.055
106.0255,-0.431,-8.903,-1.012
106.035209,-0.392,-8.865,-1.005
106.044918,-0.353,-8.826,-0.999
106.054627,-0.314,-8.826,-0.999
106.064336,-0.314,-8.949,-0.98
106.074051,-0.314,-9.237,-1.151
106.083766,-0.392,-9.508,-1.198
106.093481,-0.471,-9.823,-1.214
106.103196,-0.549,-10.087,-1.301
106.112911,-0.588,-10.389,-1.394
106.122626,-0.667,-10.628,-1.396
106.132341,-0.706,-10.853,-1.476
106.142056,-0.628,-11.232,-1.582
106.151771,-0.588,-11.58,-1.644
106.161486,-0.549,-11.71,-1.587
106.171201,-0.431,-11.555,-1.559
106.180916,-0.392,-11.401,-1.532
106.190631,-0.314,-11.221,-1.421
106.200346,-0.275,-11.453,-1.462
106.210088,-0.157,-12.771,-1.893
106.21983,-0.314,-13.866,-2.007
106.229572,-0.314,-13.591,-1.759
106.239314,-0.039,-12.723,-1.487
106.249056,0.078,-11.621,-1.412
106.258798,0.078,-10.953,-1.135
106.26854,0.196,-10.619,-0.996
106.278282,0.235,-10.478,-0.892
106.288024,0.392,-10.039,-0.894
106.297766,0.549,-10.135,-1.03
106.307508,0.588,-10.064,-0.978
106.31725,0.785,-10.026,-0.971
106.326992,0.902,-10.089,-1.062
106.336732,1.177,-10.121,-1.107
106.346472,1.294,-10.289,-1.057
106.356212,1.491,-10.11,-0.946
106.365952,1.569,-9.923,-0.873
106.375692,1.726,-9.814,-0.814
106.385432,1.804,-9.814,-0.814
106.395172,1.608,-9.814,-0.814
106.404912,1.373,-9.73,-0.839
106.414652,1.177,-9.639,-0.903
106.424392,0.941,-9.426,-0.985
106.434132,0.745,-9.233,-0.951
106.443872,0.549,-8.987,-0.987
106.453612,0.353,-8.665,-1.01
106.463352,0.235,-8.503,-1.021
106.473108,0.078,-8.381,-1.04
106.482864,-0.078,-8.335,-1.071
106.49262,-0.196,-8.36,-1.155
106.502376,-0.314,-8.378,-1.278
106.512132,-0.314,-8.41,-1.324
106.521888,-0.275,-8.403,-1.362
106.531644,-0.235,-8.494,-1.299
106.5414,-0.235,-8.431,-1.208
106.551156,-0.196,-8.36,-1.155
106.560912,-0.078,-8.406,-1.124
106.570668,0.039,-8.567,-1.112
106.580424,0.078,-9.024,-1.233
106.59018,0,-9.328,-1.087
106.599922,-0.039,-9.124,-0.892
106.609664,0,-9.085,-0.885
106.619406,0,-9.374,-1.055
106.629148,-0.078,-9.953,-1.158
106.63889,-0.078,-10.378,-1.232
106.648632,-0.039,-10.642,-1.319
106.658374,-0.039,-10.867,-1.398
106.668116,-0.039,-11.007,-1.503
106.677858,-0.039,-11.278,-1.55
106.6876,-0.118,-11.464,-1.623
106.697342,-0.157,-11.714,-1.787
106.707084,-0.235,-12.291,-2.127
106.716826,-0.392,-12.594,-2.221
106.726568,-0.353,-12.453,-2.116
106.736326,-0.314,-12.091,-2.132
106.746084,-0.353,-11.923,-2.182
106.755842,-0.51,-12.31,-2.25
106.7656,-0.588,-12.632,-2.227
106.775358,-0.628,-12.698,-2.08
106.785116,-0.588,-12.307,-1.812
106.794874,-0.431,-11.716,-1.548
106.804632,-0.314,-11.062,-1.194
106.81439,-0.235,-10.267,-0.735
106.824148,-0.039,-9.939,-0.558
106.833906,-0.118,-9.594,-0.258
106.843664,-0.235,-8.985,0.129
106.853422,-0.196,-8.964,0.013
106.863179,-0.353,-9.292,-0.165
106.872936,-0.628,-9.48,0.001
106.882693,-0.745,-9.473,-0.037
106.89245,-0.785,-9.273,-0.042
106.902207,-0.824,-9.144,-0.099
106.911964,-0.902,-9.137,-0.137
106.921721,-0.941,-9.155,-0.26
106.931478,-0.981,-9.476,-0.476
106.941235,-1.059,-9.655,-0.587
106.950992,-1.098,-9.648,-0.626
106.960749,-1.138,-9.526,-0.644
106.970506,-1.138,-9.312,-0.726
106.980263,-1.177,-9.112,-0.73
106.99002,-1.177,-8.996,-0.71
106.999761,-1.177,-8.86,-0.805
107.009502,-1.02,-8.796,-0.715
107.019243,-0.941,-8.796,-0.715
107.028984,-0.863,-8.79,-0.753
107.038725,-0.785,-8.737,-0.824
107.048466,-0.628,-8.794,-0.953
107.058207,-0.549,-8.903,-1.012
107.067948,-0.51,-9.012,-1.071
107.077689,-0.431,-9.037,-1.155
107.08743,-0.431,-8.946,-1.219
107.097171,-0.431,-8.74,-1.262
107.106912,-0.392,-8.533,-1.305
107.116653,-0.392,-8.544,-1.467
107.126394,-0.353,-8.84,-1.598
107.136135,-0.353,-8.962,-1.58
107.145849,-0.353,-8.928,-1.773
107.155563,-0.314,-9.024,-1.91
107.165277,-0.275,-9.319,-2.042
107.174991,-0.353,-9.615,-2.173
107.184705,-0.353,-9.737,-2.155
107.194419,-0.353,-9.885,-2.221
107.204133,-0.392,-10.174,-2.391
107.213847,-0.471,-10.521,-2.453
107.223561,-0.471,-10.728,-2.409
107.233275,-0.431,-10.721,-2.448
107.242989,-0.314,-11.108,-2.516
107.252703,-0.314,-11.108,-2.516
107.262417,-0.157,-11.212,-2.375
107.272058,0.039,-11.155,-2.246
107.281699,0.157,-11.271,-2.266
107.29134,0.157,-11.741,-2.309
107.300981,0.078,-12.36,-2.418
107.310622,-0.078,-12.753,-2.448
107.320263,-0.118,-12.791,-2.455
107.329904,-0.078,-12.76,-2.409
107.339545,-0.118,-12.33,-2.134
107.349186,-0.039,-11.848,-1.93
107.358827,0,-11.167,-1.73
107.368468,0.118,-10.857,-1.675
107.378109,0.196,-10.485,-1.53
107.38775,0.275,-10.239,-1.566
107.397391,0.314,-10.323,-1.541
107.407032,0.353,-10.233,-1.605
107.416626,0.314,-10.817,-1.907
107.42622,0.196,-11.285,-2.189
107.435814,0.196,-11.485,-2.184
107.445408,0.157,-10.873,-2.037
107.455002,0.314,-9.96,-1.796
107.464596,0.431,-9.233,-1.628
107.47419,0.51,-8.621,-1.48
107.483784,0.549,-8.301,-1.265
107.493378,0.628,-8.09,-1.108
107.502972,0.706,-7.872,-0.99
107.512566,0.785,-7.84,-0.944
107.52216,0.785,-7.924,-0.919
107.531754,0.824,-8.117,-0.953
107.541299,0.941,-8.265,-1.019
107.550844,0.941,-8.201,-0.928
107.560389,0.941,-8.053,-0.862
107.569934,0.941,-7.906,-0.796
107.579479,0.902,-7.906,-0.796
107.589024,0.785,-8.169,-0.883
107.598569,0.588,-8.324,-0.91
107.608114,0.471,-8.44,-0.93
107.617659,0.314,-8.542,-1.028
107.627204,0.118,-8.805,-1.114
107.636749,0,-8.774,-1.069
107.646294,-0.078,-8.612,-1.08
107.655839,-0.078,-8.644,-1.126
107.665384,-0.039,-8.824,-1.237
107.674919,-0.078,-9.287,-1.319
107.684454,-0.118,-9.885,-1.544
107.693989,-0.235,-10.426,-1.639
107.703524,-0.235,-10.735,-1.694
107.713059,-0.235,-11.005,-1.741
107.722594,-0.235,-11.294,-1.912
107.732129,-0.235,-11.705,-2.064
107.741664,-0.314,-12.091,-2.132
107.751199,-0.275,-12.01,-1.918
107.760734,-0.235,-11.907,-1.821
107.770269,-0.314,-12.069,-1.809
107.779804,-0.51,-12.321,-1.734
107.789339,-0.745,-12.612,-1.666
107.798869,-0.941,-13.332,-1.873
107.808399,-1.216,-14.221,-2.029
107.817929,-1.412,-14.282,-1.682
107.827459,-1.294,-13.198,-1.053
107.836989,-0.941,-11.314,-0.442
107.846519,-0.51,-9.705,-0.078
107.856049,-0.118,-9.171,0.056
107.865579,0.118,-9.423,0.131
107.875109,0.039,-9.798,0.224
107.884639,-0.039,-10.382,-0.078
107.894169,-0.078,-10.6,-0.196
107.903699,-0.118,-10.387,-0.278
107.913229,-0.157,-10.128,-0.392
107.922759,-0.157,-10.101,-0.546
107.93229,-0.118,-10.307,-0.503
107.941821,-0.039,-10.276,-0.458
107.951352,0.235,-9.935,-0.358
107.960883,0.471,-9.528,-0.405
107.970414,0.706,-9.303,-0.326
107.979945,0.706,-9.194,-0.267
107.989476,0.588,-9.085,-0.208
107.999007,0.51,-8.905,-0.096
108.008538,0.314,-8.705,-0.101
108.018069,0.157,-8.442,-0.015
108.0276,0.078,-8.326,0.006
108.037131,-0.078,-8.424,0.108
108.046662,-0.235,-8.623,0.113
108.056193,-0.275,-8.908,0.142
108.06572,-0.353,-9.114,0.185
108.075247,-0.549,-9.23,0.165
108.084774,-0.628,-9.139,0.101
108.094301,-0.745,-8.901,0.103
108.103828,-0.824,-8.63,0.151
108.113355,-0.902,-8.374,0.276
108.122882,-0.785,-8.321,0.206
108.132409,-0.706,-8.751,-0.069
108.141936,-0.745,-8.883,0.226
108.151463,-0.628,-8.787,0.363
108.16099,-0.588,-8.626,0.351
108.170517,-0.588,-8.721,0.215
108.180044,-0.628,-9.23,0.165
108.189571,-0.785,-9.689,0.283
108.199092,-0.824,-9.998,0.229
108.208613,-0.824,-10.121,0.247
108.218134,-0.941,-10.096,0.331
108.227655,-0.941,-10.25,0.304
108.237176,-0.902,-10.564,0.049
108.246697,-0.824,-10.764,0.054
108.256218,-0.824,-11.098,-0.085
108.265739,-0.863,-11.105,-0.046
108.27526,-0.863,-11.053,-0.117
108.284781,-0.785,-11.487,-0.591
108.294302,-0.902,-12.989,-1.334
108.303823,-1.451,-13.798,-1.039
108.313344,-1.648,-13.459,-0.7
108.322865,-1.451,-12.766,-1.016
108.332433,-1.216,-12.146,-1.146
108.342001,-1.098,-12.178,-1.191
108.351569,-0.785,-11.982,-0.719
108.361137,-0.392,-11.403,-0.616
108.370705,-0.275,-11.091,-0.801
108.380273,-0.275,-10.78,-0.985
108.389841,-0.353,-10.657,-1.003
108.399409,-0.353,-10.264,-0.973
108.408977,-0.353,-9.812,-1.053
108.418545,-0.353,-9.553,-1.167
108.428113,-0.392,-9.455,-1.269
108.437681,-0.392,-9.705,-1.432
108.447249,-0.588,-9.994,-1.603
108.456834,-0.745,-9.955,-1.596
108.466419,-0.902,-9.608,-1.535
108.476004,-0.981,-9.06,-1.478
108.485589,-0.981,-8.758,-1.385
108.495174,-1.098,-8.701,-1.255
108.504759,-1.138,-8.799,-1.153
108.514344,-1.177,-8.767,-1.108
108.523929,-1.138,-8.69,-1.094
108.533514,-1.216,-8.728,-1.101
108.543099,-1.334,-8.749,-0.985
108.552684,-1.255,-8.794,-0.953
108.562269,-1.177,-8.865,-1.005
108.571854,-1.177,-9.039,-0.917
108.581439,-1.059,-9.18,-1.021
108.591024,-0.902,-9.103,-1.008
108.600654,-0.706,-9.078,-0.924
108.610284,-0.628,-8.974,-1.064
108.619914,-0.745,-9.005,-1.11
108.629544,-0.824,-9.069,-1.201
108.639174,-0.941,-9.151,-1.414
108.648804,-1.059,-9.274,-1.396
108.658434,-1.098,-9.435,-1.385
108.668064,-1.138,-9.46,-1.469
108.677694,-1.216,-9.294,-1.28
108.687324,-1.255,-8.958,-1.38
108.696954,-1.412,-9.126,-1.33
108.706584,-1.451,-9.165,-1.337
108.716214,-1.53,-9.333,-1.287
108.725864,-1.569,-9.19,-1.421
108.735514,-1.569,-9.249,-1.312
108.745164,-1.491,-9.242,-1.351
108.754814,-1.412,-9.462,-1.23
108.764464,-1.412,-9.796,-1.369
108.774114,-1.334,-9.964,-1.319
108.783764,-1.294,-10.269,-1.173
108.793414,-1.294,-10.585,-1.189
108.803064,-1.255,-10.76,-1.101
108.812714,-1.138,-10.907,-1.166
108.822364,-1.138,-11.319,-1.319
108.832014,-1.216,-11.778,-1.2
108.841664,-1.177,-12.012,-1.003
108.851314,-1.138,-11.864,-0.937
108.861015,-1.059,-11.875,-1.098
108.870716,-1.138,-12.223,-1.159
108.880417,-1.255,-12.88,-1.275
108.890118,-1.491,-13.793,-1.516
108.899819,-1.804,-14.021,-1.357
108.90952,-1.883,-13.341,-0.918
108.919221,-1.765,-12.003,-0.603
108.928922,-1.608,-10.807,-0.153
108.938623,-1.334,-9.844,0.256
108.948324,-0.941,-9.548,0.388
108.958025,-0.785,-9.914,0.204
108.967726,-0.785,-10.185,0.156
108.977427,-0.628,-10.35,-0.033
108.987168,-0.51,-10.414,-0.124
108.996909,-0.471,-10.421,-0.085
109.00665,-0.392,-10.389,-0.039
109.016391,-0.431,-10.235,-0.012
109.026132,-0.431,-10.21,0.072
109.035873,-0.353,-10.178,0.117
109.045614,-0.275,-10.146,0.163
109.055355,-0.275,-10.107,0.17
109.065096,-0.314,-10.082,0.254
109.074837,-0.471,-10.012,0.306
109.084578,-0.51,-9.826,0.379
109.094319,-0.549,-9.626,0.374
109.10406,-0.588,-9.387,0.376
109.113801,-0.549,-9.135,0.301
109.123575,-0.471,-8.908,0.142
109.133349,-0.471,-8.61,0.035
109.143123,-0.51,-8.351,-0.078
109.152897,-0.471,-8.085,-0.231
109.162671,-0.471,-7.935,-0.403
109.172445,-0.471,-7.812,-0.422
109.182219,-0.549,-7.612,-0.426
109.191993,-0.392,-7.508,-0.567
109.201767,-0.235,-7.519,-0.728
109.211541,-0.118,-7.622,-0.826
109.221315,-0.039,-7.89,-1.112
109.231089,-0.039,-8.467,-1.453
109.240863,-0.078,-8.54,-1.267
109.250637,-0.039,-8.367,-1.117
109.260416,-0.118,-8.219,-1.051
109.270195,-0.275,-8.301,-1.265
109.279974,-0.51,-8.726,-1.339
109.289753,-0.667,-9.01,-1.31
109.299532,-0.824,-9.326,-1.326
109.309311,-0.824,-9.571,-1.289
109.31909,-0.863,-9.733,-1.278
109.328869,-0.863,-10.298,-1.457
109.338648,-0.824,-10.853,-1.476
109.348427,-0.667,-11.196,-1.337
109.358206,-0.51,-11.312,-1.357
109.367985,-0.431,-11.466,-1.385
109.377764,-0.431,-11.78,-1.639
109.387543,-0.431,-12.519,-1.968
109.397354,-0.471,-13.137,-2.077
109.407165,-0.431,-13.434,-1.971
109.416976,-0.314,-13.146,-1.8
109.426787,-0.118,-12.619,-1.628
109.436598,0.157,-12.303,-1.612
109.446409,0.431,-12.387,-1.587
109.45622,0.745,-12.439,-1.516
109.466031,0.941,-11.86,-1.414
109.475842,1.138,-11.625,-1.612
109.485653,1.059,-11.553,-1.798
109.495464,0.981,-11.507,-1.83
109.505275,0.981,-11.16,-1.769
109.515086,0.981,-10.842,-1.991
109.524919,1.098,-10.989,-2.057
109.534752,1.098,-10.771,-1.939
109.544585,1.216,-10.053,-1.494
109.554418,1.255,-9.105,-1.446
109.564251,1.334,-8.487,-1.337
109.574084,1.334,-8.301,-1.265
109.583917,1.216,-8.153,-1.199
109.59375,1.177,-8.128,-1.115
109.603583,1.059,-8.051,-1.101
109.613416,0.863,-7.865,-1.028
109.623249,0.667,-7.819,-1.06
109.633082,0.51,-7.897,-1.074
109.642915,0.314,-8.019,-1.056
109.652748,0.235,-8.026,-1.017
109.662572,0.196,-7.987,-1.01
109.672396,0.157,-8.033,-0.978
109.68222,0.078,-8.194,-0.967
109.692044,0,-8.458,-1.053
109.701868,-0.196,-8.626,-1.003
109.711692,-0.314,-8.555,-0.951
109.721516,-0.431,-8.594,-0.958
109.73134,-0.549,-8.71,-0.978
109.741164,-0.588,-8.994,-0.949
109.750988,-0.549,-9.176,-0.821
109.760812,-0.51,-9.151,-0.737
109.770636,-0.392,-9.242,-0.674
109.78046,-0.392,-9.494,-0.599
109.790284,-0.353,-9.848,-0.621
109.800079,-0.353,-10.151,-0.714
109.809874,-0.353,-10.389,-0.717
109.819669,-0.353,-10.512,-0.698
109.829464,-0.392,-10.621,-0.757
109.839259,-0.392,-10.705,-0.732
109.849054,-0.392,-11.046,-0.832
109.858849,-0.471,-11.478,-0.869
109.868644,-0.51,-11.916,-0.866
109.878439,-0.51,-12.053,-0.771
109.888234,-0.431,-12.014,-0.764
109.898029,-0.471,-12.298,-0.735
109.907824,-0.392,-12.666,-0.68
109.917619,-0.431,-13.298,-0.712
109.927414,-0.549,-13.911,-0.621
109.937213,-0.628,-13.8,-0.123
109.947012,-0.588,-12.818,0.409
109.956811,-0.392,-11.489,1.001
109.96661,-0.118,-10.718,1.376
109.976409,-0.078,-10.598,1.597
109.986208,-0.196,-10.682,1.622
109.996007,-0.157,-10.618,1.713
110.005806,-0.196,-10.771,1.447
110.015605,-0.392,-10.771,1.447
110.025404,-0.392,-10.648,1.429
110.035203,-0.314,-10.364,1.399
110.045002,-0.235,-10.343,1.283
110.054801,-0.157,-10.478,1.14
110.064579,-0.039,-10.432,1.108
110.074357,0,-10.148,1.079
110.084135,0.039,-9.941,1.035
110.093913,0.078,-9.735,0.992
110.103691,0.039,-9.612,0.974
110.113469,0,-9.412,0.969
110.123247,-0.039,-9.244,0.919
110.133025,-0.039,-9.005,0.922
110.142803,-0.078,-8.753,0.847
110.152581,-0.078,-8.669,0.822
110.162359,-0.118,-8.623,0.79
110.172137,-0.196,-8.61,0.712
110.181915,-0.196,-8.596,0.635
110.191693,-0.275,-8.621,0.551
110.201438,-0.314,-8.548,0.365
110.211183,-0.392,-8.51,0.372
110.220928,-0.353,-8.528,0.249
110.230673,-0.392,-8.444,0.224
110.240418,-0.471,-8.392,0.153
110.250163,-0.51,-8.385,0.115
110.259908,-0.51,-8.564,0.003
110.269653,-0.51,-8.873,-0.051
110.279398,-0.588,-8.958,-0.026
110.289143,-0.628,-9.021,-0.117
110.298888,-0.667,-9.201,-0.228
110.308633,-0.745,-9.439,-0.23
110.318378,-0.941,-9.685,-0.194
110.328123,-1.059,-9.846,-0.183
110.337841,-1.216,-10.007,-0.171
110.347559,-1.294,-10.041,0.022
110.357277,-1.255,-10.151,-0.037
110.366995,-1.138,-10.305,-0.064
110.376713,-1.02,-10.762,-0.185
110.386431,-0.941,-10.898,-0.089
110.396149,-0.745,-10.982,-0.064
110.405867,-0.51,-11.348,-0.248
110.415585,-0.392,-12.734,-0.971
110.425303,-0.588,-13.725,-0.548
110.435021,-0.588,-12.945,0.227
110.444739,-0.157,-11.85,0.34
110.454457,0.118,-11.178,0.14
110.464175,0.314,-11.418,0.377
110.473886,0.628,-11.621,0.62
110.483597,0.824,-11.702,0.406
110.493308,0.902,-11.734,0.361
110.503019,0.863,-11.752,0.238
110.51273,0.785,-11.725,0.083
110.522441,0.706,-11.691,-0.11
110.532152,0.628,-11.864,-0.26
110.541863,0.588,-11.889,-0.344
110.551574,0.628,-11.58,-0.289
110.561285,0.824,-10.885,-0.167
110.570996,0.824,-10.176,-0.121
110.580707,0.706,-9.628,-0.065
110.590418,0.431,-9.126,0.024
110.600113,0.118,-8.714,0.176
110.609808,-0.314,-8.36,0.199
110.619503,-0.549,-8.058,0.292
110.629198,-0.941,-7.967,0.228
110.638893,-1.255,-7.869,0.126
110.648588,-1.373,-7.908,0.119
110.658283,-1.412,-7.94,0.074
110.667978,-1.373,-7.971,0.028
110.677673,-1.216,-8.003,-0.017
110.687368,-1.098,-7.951,-0.088
110.697063,-0.941,-8.015,-0.178
110.706758,-0.863,-8.233,-0.297
110.716453,-0.785,-8.503,-0.344
110.726148,-0.706,-8.76,-0.469
110.735827,-0.628,-8.799,-0.476
110.745506,-0.51,-8.869,-0.528
110.755185,-0.51,-8.876,-0.49
110.764864,-0.431,-8.88,-0.69
110.774543,-0.275,-9.144,-0.776
110.784222,-0.196,-9.555,-0.928
110.793901,-0.157,-10.051,-1.055
110.80358,-0.078,-10.585,-1.189
110.813259,-0.039,-11.048,-1.271
110.822938,0.039,-11.287,-1.273
110.832617,0.118,-11.525,-1.275
110.842296,0.118,-11.975,-1.434
110.851975,0.039,-12.355,-1.541
110.861654,0,-12.473,-1.323
110.871294,-0.078,-12.441,-1.278
110.880934,-0.196,-12.325,-1.257
110.890574,-0.235,-12.191,-1.114
110.900214,-0.235,-12.128,-1.023
110.909854,-0.275,-12.521,-1.053
110.919494,-0.353,-12.416,-0.516
110.929134,-0.235,-11.525,0.079
110.938774,-0.118,-10.394,0.438
110.948414,0.078,-9.662,0.806
110.958054,0.039,-9.625,1.051
110.967694,0.039,-9.719,1.353
110.977334,0.039,-9.88,1.365
110.986974,-0.118,-10.182,1.272
110.996614,-0.275,-10.646,1.19
111.006253,-0.353,-10.743,1.292
111.015892,-0.353,-10.582,1.281
111.025531,-0.314,-10.498,1.256
111.03517,-0.314,-10.53,1.21
111.044809,-0.275,-10.607,1.197
111.054448,-0.275,-10.621,1.274
111.064087,-0.314,-10.589,1.319
111.073726,-0.471,-10.621,1.274
111.083365,-0.628,-10.575,1.242
111.093004,-0.706,-10.473,1.34
111.102643,-0.706,-10.119,1.363
111.112282,-0.706,-9.764,1.385
111.121921,-0.628,-9.435,1.324
111.131558,-0.392,-9.182,1.249
111.141195,-0.392,-9.085,1.147
111.150832,-0.392,-9.057,0.992
111.160469,-0.314,-9.03,0.837
111.170106,-0.235,-9.048,0.715
111.179743,-0.157,-9.144,0.578
111.18938,-0.078,-9.317,0.428
111.199017,-0.039,-9.335,0.306
111.208654,0,-9.314,0.19
111.218291,0,-9.378,0.099
111.227928,0,-9.326,0.029
111.237565,-0.039,-9.242,0.004
111.247202,-0.157,-9.151,-0.06
111.256839,-0.275,-9.06,-0.124
111.266461,-0.471,-8.962,-0.226
111.276083,-0.667,-8.917,-0.258
111.285705,-0.706,-9.03,-0.517
111.295327,-0.745,-9.044,-0.44
111.304949,-0.785,-9.083,-0.446
111.314571,-0.745,-9.269,-0.519
111.324193,-0.785,-9.501,-0.56
111.333815,-0.902,-9.726,-0.639
111.343437,-1.059,-9.887,-0.628
111.353059,-1.216,-10.151,-0.714
111.362681,-1.334,-10.228,-0.728
111.372303,-1.334,-10.157,-0.676
111.381925,-1.216,-10.017,-0.571
111.391547,-1.098,-9.921,-0.435
111.401147,-0.902,-10.16,-0.437
111.410747,-0.824,-10.419,-0.323
111.420347,-0.628,-10.573,-0.351
111.429947,-0.549,-11.05,-0.355
111.439547,-0.588,-11.298,-0.08
111.449147,-0.549,-11.475,0.247
111.458747,-0.628,-11.503,0.402
111.468347,-0.628,-11.375,0.583
111.477947,-0.549,-11.073,0.676
111.487547,-0.431,-11.341,0.39
111.497147,-0.392,-11.987,0.436
111.506747,-0.431,-11.982,0.636
111.516347,-0.471,-11.646,0.536
111.525947,-0.51,-11.514,0.24
111.535535,-0.431,-11.63,0.22
111.545123,-0.431,-11.373,0.345
111.554711,-0.275,-10.862,0.156
111.564299,-0.078,-10.839,-0.198
111.573887,0.118,-10.966,-0.38
111.583475,0.275,-10.791,-0.469
111.593063,0.392,-10.596,-0.673
111.602651,0.51,-10.203,-0.644
111.612239,0.588,-9.957,-0.68
111.621827,0.628,-9.898,-0.789
111.631415,0.628,-9.923,-0.873
111.641003,0.667,-9.828,-0.737
111.650591,0.785,-9.617,-0.58
111.660179,0.941,-9.392,-0.501
111.669788,1.02,-9.219,-0.351
111.679397,0.902,-9.103,-0.33
111.689006,0.902,-9.001,-0.233
111.698615,0.785,-8.976,-0.149
111.708224,0.628,-8.912,-0.058
111.717833,0.51,-8.835,-0.044
111.727442,0.431,-8.758,-0.031
111.737051,0.314,-8.758,-0.031
111.74666,0.235,-8.674,-0.056
111.756269,0.196,-8.635,-0.049
111.765878,0.157,-8.519,-0.028
111.775487,0.157,-8.428,-0.092
111.785096,0.157,-8.428,-0.092
111.794713,0.196,-8.326,0.006
111.80433,0.235,-8.274,-0.065
111.813947,0.196,-8.324,-0.233
111.823564,0.235,-8.51,-0.306
111.833181,0.314,-8.383,-0.124
111.842798,0.353,-8.376,-0.162
111.852415,0.314,-8.537,-0.151
111.862032,0.353,-8.789,-0.076
111.871649,0.353,-9.189,-0.067
111.881266,0.392,-9.551,-0.051
111.890883,0.431,-9.919,0.004
111.9005,0.51,-10.364,0.045
111.910117,0.588,-10.88,0.033
111.919734,0.588,-11.621,-0.057
111.929362,0.549,-12.843,-0.353
111.93899,0.314,-13.273,0.05
111.948618,0.275,-13.236,0.295
111.958246,0.235,-13.075,0.284
111.967874,0,-13.525,0.125
111.977502,-0.157,-14.261,0.234
111.98713,-0.353,-14.15,0.731
111.996758,-0.549,-13.252,1.288
112.006386,-0.745,-12.254,1.504
112.016014,-0.902,-11.35,2.022
112.025642,-0.824,-10.734,2.369
112.03527,-0.863,-10.375,2.592
112.044898,-0.902,-10.446,2.54
112.054526,-1.059,-10.768,2.562
112.064195,-1.02,-10.836,2.272
112.073864,-1.138,-10.798,2.278
112.083533,-1.255,-10.482,2.294
112.093202,-1.334,-10.398,2.269
112.102871,-1.412,-10.391,2.231
112.11254,-1.412,-10.48,2.056
112.122209,-1.412,-10.389,1.992
112.131878,-1.373,-9.989,1.983
112.141547,-1.216,-9.6,1.812
112.151216,-1.098,-9.212,1.642
112.160885,-0.981,-9.121,1.578
112.170554,-0.863,-8.837,1.549
112.180223,-0.745,-8.546,1.48
112.189924,-0.628,-8.269,1.49
112.199625,-0.471,-7.978,1.421
112.209326,-0.353,-7.823,1.449
112.219027,-0.196,-7.701,1.43
112.228728,-0.078,-7.785,1.455
112.238429,0.039,-7.855,1.403
112.24813,0.157,-8.048,1.369
112.257831,0.157,-8.357,1.315
112.267532,0.078,-8.68,1.337
112.277233,0.039,-8.803,1.356
112.286934,0.039,-8.732,1.408
112.296635,0.039,-8.642,1.344
112.306336,0.039,-8.68,1.337
112.316037,-0.078,-8.776,1.201
112.325763,-0.157,-9.187,1.049
112.335489,-0.196,-9.362,1.137
112.345215,-0.196,-9.207,1.165
112.354941,-0.235,-9.007,1.16
112.364667,-0.314,-9.064,1.031
112.374393,-0.353,-9.496,0.994
112.384119,-0.392,-9.889,0.965
112.393845,-0.392,-10.269,0.858
112.403571,-0.51,-10.571,0.765
112.413297,-0.588,-10.63,0.874
112.423023,-0.588,-10.528,0.972
112.432749,-0.628,-10.398,0.915
112.442475,-0.549,-10.764,0.731
112.452201,-0.588,-11.382,0.622
112.46197,-0.588,-11.475,0.924
112.471739,-0.51,-10.934,1.02
112.481508,-0.431,-10.791,0.885
112.491277,-0.431,-11.78,0.392
112.501046,-0.549,-13.35,0.036
112.510815,-0.706,-13.677,0.536
112.520584,-0.431,-13.202,0.779
112.530353,-0.314,-12.402,0.761
112.540122,-0.314,-11.982,0.636
112.549891,-0.235,-11.802,0.747
112.55966,0,-11.557,0.711
112.569429,0.118,-11.505,0.64
112.579198,0.314,-10.932,0.781
112.588989,0.549,-10.498,0.579
112.59878,0.706,-10.221,0.588
112.608571,0.902,-10.112,0.647
112.618362,1.138,-10.162,0.479
112.628153,1.177,-10.25,0.304
112.637944,1.373,-10.212,0.31
112.647735,1.412,-9.903,0.365
112.657526,1.53,-9.292,0.513
112.667317,1.412,-8.705,0.576
112.677108,1.334,-8.298,0.528
112.686899,1.177,-8.092,0.485
112.69669,0.981,-7.976,0.506
112.706481,0.745,-7.821,0.533
112.716272,0.51,-7.705,0.553
112.726083,0.353,-7.705,0.553
112.735894,0.157,-7.764,0.662
112.745705,-0.039,-7.908,0.796
112.755516,-0.157,-8.076,0.846
112.765327,-0.235,-8.237,0.858
112.775138,-0.275,-8.367,0.915
112.784949,-0.314,-8.412,0.946
112.79476,-0.314,-8.612,0.951
112.804571,-0.235,-8.742,1.008
112.814382,-0.157,-8.807,1.156
112.824193,-0.118,-8.86,1.226
112.834004,-0.118,-9.105,1.262
112.843815,-0.196,-9.269,1.512
112.853626,-0.157,-9.212,1.642
112.863425,-0.118,-9.11,1.74
112.873224,-0.039,-9.214,1.881
112.883023,-0.039,-9.525,2.065
112.892822,0,-9.746,2.185
112.902621,0.078,-10.114,2.24
112.91242,0.118,-10.552,2.242
112.922219,0.275,-10.811,2.356
112.932018,0.353,-10.857,2.387
112.941817,0.353,-10.85,2.349
112.951616,0.392,-10.889,2.342
112.961415,0.353,-10.85,2.349
112.971214,0.314,-10.709,2.453
112.981013,0.275,-10.791,2.24
112.990812,0.157,-11.286,2.113
113.000602,0.039,-11.636,2.29
113.010392,0.078,-11.22,2.642
113.020182,0.039,-10.589,2.674
113.029972,0,-10.58,2.397
113.039762,-0.196,-11.739,2.192
113.049552,-0.431,-12.616,2.197
113.059342,-0.588,-12.882,2.349
113.069132,-0.628,-12.182,2.672
113.078922,-0.549,-10.861,2.865
113.088712,-0.51,-9.63,2.883
113.098502,-0.431,-8.887,2.735
113.108292,-0.431,-8.744,2.601
113.118082,-0.51,-8.996,2.676
113.127872,-0.51,-9.062,2.824
113.13763,-0.471,-9.041,2.708
113.147388,-0.588,-9.164,2.726
113.157146,-0.667,-9.423,2.839
113.166904,-0.667,-9.612,3.005
113.176662,-0.745,-9.671,3.114
113.18642,-0.745,-9.614,3.244
113.196178,-0.706,-9.518,3.38
113.205936,-0.667,-9.441,3.394
113.215694,-0.628,-9.364,3.408
113.225452,-0.51,-9.248,3.428
113.23521,-0.353,-9.016,3.469
113.244968,-0.314,-8.746,3.517
113.254726,-0.196,-8.5,3.48
113.264484,-0.157,-8.294,3.437
113.274231,-0.118,-8.184,3.496
113.283978,-0.078,-8.171,3.419
113.293725,-0.039,-8.203,3.373
113.303472,0,-8.312,3.314
113.313219,0.078,-8.512,3.319
113.322966,0.157,-8.737,3.239
113.332713,0.235,-8.923,3.167
113.34246,0.275,-9.032,3.108
113.352207,0.314,-8.987,3.076
113.361954,0.353,-8.85,2.98
113.371701,0.392,-8.907,2.851
113.381448,0.392,-9.203,2.719
113.391195,0.353,-9.578,2.812
113.400911,0.392,-9.353,2.892
113.410627,0.51,-9.075,2.901
113.420343,0.471,-8.991,2.876
113.430059,0.471,-9.128,2.971
113.439775,0.392,-9.38,3.046
113.449491,0.392,-9.548,3.096
113.459207,0.392,-9.702,3.069
113.468923,0.314,-9.896,3.035
113.478639,0.235,-9.98,3.06
113.488355,0.235,-9.941,3.067
113.498071,0.196,-9.923,3.189
113.507787,0.157,-9.821,3.287
113.517503,0.157,-9.564,3.412
113.527219,0.196,-9.293,3.46
113.536902,0.314,-9.523,3.18
113.546585,0.392,-10.484,3.21
113.556268,0.392,-11.42,3.324
113.565951,0.392,-11.927,3.712
113.575634,0.431,-11.782,4.017
113.585317,0.314,-11.479,4.11
113.595,0.235,-11.557,4.096
113.604683,0.196,-11.436,4.317
113.614366,0.353,-11.218,4.435
113.624049,0.51,-10.909,4.489
113.633732,0.706,-10.495,4.403
113.643415,0.981,-10.198,4.296
113.653098,1.138,-9.65,4.353
113.662781,1.373,-9.455,4.148
113.672465,1.451,-9.48,4.064
113.682149,1.491,-9.473,4.026
113.691833,1.608,-9.666,3.992
113.701517,1.608,-9.609,4.121
113.711201,1.608,-9.307,4.214
113.720885,1.569,-8.991,4.23
113.730569,1.451,-8.991,4.23
113.740253,1.294,-9.286,4.098
113.749937,1.059,-9.596,4.044
113.759621,0.863,-9.716,3.823
113.769305,0.706,-9.496,3.703
113.778989,0.549,-9.127,3.648
113.788673,0.431,-8.662,3.492
113.798343,0.353,-8.305,3.276
113.808013,0.353,-8.091,3.194
113.817683,0.275,-8.046,3.162
113.827353,0.314,-8.078,3.116
113.837023,0.353,-8.096,2.994
113.846693,0.431,-8.255,2.767
113.856363,0.471,-8.428,2.617
113.866033,0.51,-8.491,2.526
113.875703,0.51,-8.4,2.462
113.885373,0.471,-8.239,2.451
113.895043,0.431,-8.173,2.303
113.904713,0.471,-8.219,2.335
113.914383,0.471,-8.11,2.394
113.924053,0.51,-7.916,2.428
113.933729,0.549,-7.994,2.414
113.943405,0.51,-8.285,2.483
113.953081,0.431,-8.66,2.576
113.962757,0.353,-9.08,2.701
113.972433,0.392,-9.441,2.717
113.982109,0.431,-9.718,2.708
113.991785,0.51,-9.912,2.674
114.001461,0.549,-10.168,2.549
114.011137,0.549,-10.189,2.665
114.020813,0.471,-10.234,2.696
114.030489,0.431,-10.093,2.801
114.040165,0.353,-10.171,2.787
114.049841,0.196,-10.389,2.669
114.059517,0.078,-11.416,2.169
114.069193,-0.078,-13.032,1.845
114.07886,-0.431,-13.5,2.24
114.088527,-0.275,-12.279,2.774
114.098194,-0.353,-10.702,3.092
114.107861,-0.314,-9.641,3.398
114.117528,-0.314,-9.302,3.737
114.127195,-0.392,-8.939,4.16
114.136862,-0.353,-8.791,4.225
114.146529,-0.588,-9.332,4.13
114.156196,-0.785,-10.036,4.285
114.165863,-0.902,-10.373,4.385
114.17553,-1.098,-10.514,4.28
114.185197,-1.294,-10.713,4.285
114.194864,-1.294,-10.854,4.18
114.204531,-1.216,-10.777,4.194
114.214211,-1.138,-10.641,4.099
114.223891,-0.941,-10.473,4.048
114.233571,-0.706,-10.086,4.117
114.243251,-0.549,-9.827,4.003
114.252931,-0.431,-9.446,3.871
114.262611,-0.275,-9.098,3.932
114.272291,-0.235,-8.871,3.773
114.281971,-0.196,-8.805,3.626
114.291651,-0.275,-8.739,3.478
114.301331,-0.314,-8.48,3.364
114.311011,-0.392,-8.337,3.23
114.320691,-0.392,-8.207,3.173
114.330371,-0.471,-8.032,3.085
114.340042,-0.51,-7.798,2.887
114.349713,-0.51,-7.648,2.714
114.359384,-0.51,-7.498,2.542
114.369055,-0.549,-7.323,2.453
114.378726,-0.51,-7.135,2.287
114.388397,-0.549,-6.869,2.135
114.398068,-0.471,-6.61,2.021
114.407739,-0.431,-6.467,1.887
114.41741,-0.431,-6.408,1.778
114.427081,-0.431,-6.542,1.635
114.436752,-0.353,-6.735,1.601
114.446423,-0.314,-6.819,1.626
114.456094,-0.196,-6.833,1.703
114.465765,-0.118,-6.91,1.689
114.475449,-0.118,-7.051,1.585
114.485133,-0.078,-7.289,1.583
114.494817,-0.118,-7.476,1.51
114.504501,-0.235,-7.669,1.476
114.514185,-0.314,-7.887,1.358
114.523869,-0.314,-8.214,1.18
114.533553,-0.431,-8.626,1.028
114.543237,-0.549,-8.812,0.956
114.552921,-0.588,-8.817,0.756
114.562605,-0.667,-8.732,0.731
114.572289,-0.706,-8.61,0.712
114.581973,-0.706,-8.512,0.61
114.591657,-0.628,-8.312,0.606
114.601341,-0.549,-8.119,0.64
114.611025,-0.431,-7.951,0.59
114.620711,-0.392,-8.458,0.301
114.630397,-0.471,-9.655,0.09
114.640083,-0.588,-10.462,0.147
114.649769,-0.431,-10.56,0.249
114.659455,-0.314,-11.632,-0.219
114.669141,-0.431,-13.361,-0.125
114.678827,-0.275,-14.513,0.309
114.688513,0.039,-15.059,0.691
114.698199,0.196,-14.979,1.143
114.707885,0.392,-14.97,1.543
114.717571,0.549,-14.761,1.938
114.727257,0.902,-14.609,2.204
114.736921,1.177,-14.545,2.295
114.746585,1.491,-14.322,2.613
114.756249,1.883,-13.872,2.772
114.765913,2.118,-13.313,2.99
114.775577,2.471,-12.831,3.194
114.785241,2.667,-12.522,3.249
114.794905,2.746,-12.361,3.238
114.804569,2.667,-12.438,3.224
114.814233,2.471,-12.284,3.251
114.823897,2.197,-11.87,3.165
114.833561,1.844,-11.282,2.99
114.843225,1.451,-10.636,2.944
114.852889,1.138,-9.957,2.705
114.862553,0.902,-9.169,2.526
114.87222,0.549,-8.541,2.358
114.881887,0.392,-7.921,2.228
114.891554,0.235,-7.378,2.085
114.901221,0.157,-6.905,1.889
114.910888,0.039,-6.601,1.744
114.920555,0.039,-6.458,1.61
114.930222,0.118,-6.321,1.514
114.939889,0.118,-6.16,1.503
114.949556,0.157,-5.992,1.453
114.959223,0.235,-5.94,1.382
114.96889,0.314,-5.947,1.421
114.978557,0.431,-5.915,1.466
114.988224,0.549,-5.837,1.48
114.997877,0.628,-5.715,1.462
115.00753,0.745,-5.715,1.462
115.017183,0.824,-5.831,1.441
115.026836,0.863,-6.017,1.369
115.036489,0.941,-6.281,1.282
115.046142,0.941,-6.551,1.235
115.055795,0.941,-6.667,1.214
115.065448,0.981,-6.712,1.246
115.075101,0.902,-6.842,1.303
115.084754,0.863,-7.03,1.469
115.094407,0.902,-7.051,1.585
115.10406,0.902,-7.328,1.576
115.113713,0.981,-8.76,0.885
115.123366,0.628,-11.066,0.638
115.133017,0.314,-12.43,0.915
115.142668,0.392,-13.025,1.129
115.152319,0.353,-13.413,1.299
115.16197,0.157,-14.002,1.474
115.171621,-0.039,-15.163,1.509
115.181272,-0.078,-16.442,1.761
115.190923,0,-17.235,2.418
115.200574,0.118,-16.822,3.009
115.210225,0.235,-15.754,3.277
115.219876,0.196,-14.845,3.317
115.229527,0.039,-14.652,3.351
115.239178,-0.078,-14.647,3.551
115.248829,-0.157,-14.295,3.813
115.25848,-0.275,-14.031,3.899
115.268118,-0.471,-13.665,4.083
115.277756,-0.706,-13.24,4.158
115.287394,-0.824,-12.77,4.201
115.297032,-0.941,-12.268,4.29
115.30667,-0.941,-11.559,4.335
115.316308,-0.941,-10.654,4.176
115.325946,-0.902,-9.943,3.983
115.335584,-0.902,-9.327,3.653
115.345222,-0.863,-8.693,3.446
115.35486,-0.902,-8.078,3.116
115.364498,-0.941,-7.48,2.664
115.374136,-1.02,-7.121,2.21
115.383774,-1.177,-7.014,1.83
115.393412,-1.255,-6.915,1.489
115.403063,-1.294,-6.751,1.239
115.412714,-1.255,-6.503,0.964
115.422365,-1.294,-6.135,0.91
115.432016,-1.294,-5.613,0.882
115.441667,-1.216,-5.238,0.789
115.451318,-1.098,-5.165,0.603
115.460969,-1.098,-5.351,0.53
115.47062,-0.981,-5.667,0.514
115.480271,-0.863,-5.713,0.546
115.489922,-0.745,-5.828,0.526
115.499573,-0.745,-6.015,0.453
115.509224,-0.745,-6.524,0.403
115.518875,-0.745,-7.103,0.301
115.528545,-0.941,-7.753,0.147
115.538215,-0.981,-8.301,0.09
115.547885,-0.941,-8.596,-0.042
115.557555,-0.902,-8.61,0.035
115.567225,-0.824,-8.385,0.115
115.576895,-0.667,-8.244,0.219
115.586565,-0.471,-8.544,-0.112
115.596235,-0.431,-9.773,-0.369
115.605905,-0.471,-11.005,-0.387
115.615575,-0.51,-11.357,0.029
115.625245,-0.235,-11.723,-0.155
115.634915,-0.275,-12.491,-0.091
115.644585,-0.314,-12.773,0.377
115.654255,0,-13.32,0.32
115.663928,0,-14.352,0.297
115.673601,0,-15.477,0.577
115.683274,0.235,-15.99,1.004
115.692947,0.51,-16.038,1.275
115.70262,0.628,-15.806,1.316
115.712293,0.863,-15.402,1.506
115.721966,1.098,-15.036,1.69
115.731639,1.294,-14.502,1.824
115.741312,1.451,-14.006,1.952
115.750985,1.608,-13.434,2.092
115.760658,1.765,-12.766,2.37
115.770331,1.765,-12.341,2.444
115.780004,1.726,-11.877,2.526
115.789677,1.687,-11.42,2.647
115.799375,1.569,-10.691,2.576
115.809073,1.412,-10.046,2.531
115.818771,1.255,-9.639,2.483
115.828469,1.059,-9.232,2.435
115.838167,0.902,-8.721,2.246
115.847865,0.628,-8.107,2.155
115.857563,0.392,-7.828,1.926
115.867261,0.118,-7.889,1.596
115.876959,-0.118,-8.119,1.317
115.886657,-0.275,-8.014,1.176
115.896355,-0.275,-7.362,1.092
115.906053,-0.235,-6.665,0.976
115.915751,-0.157,-6.135,0.91
115.925471,0.118,-5.831,0.764
115.935191,0.353,-5.669,0.753
115.944911,0.51,-5.553,0.773
115.954631,0.667,-5.547,0.735
115.964351,0.628,-5.915,0.789
115.974071,0.549,-6.367,0.869
115.983791,0.431,-7.344,0.537
115.993511,0.275,-8.039,0.415
116.003231,0.314,-8.051,0.253
116.012951,0.392,-7.799,0.178
116.022671,0.471,-7.542,0.303
116.032391,0.588,-7.453,0.478
116.042111,0.745,-7.66,0.521
116.051831,0.745,-7.919,0.635
116.061558,0.863,-8.055,0.731
116.071285,0.824,-8.294,0.728
116.081012,0.745,-8.287,0.69
116.090739,0.824,-9.673,-0.033
116.100466,0.549,-11.239,-0.189
116.110193,0.785,-11.637,-0.419
116.11992,0.981,-12.039,-0.848
116.129647,1.02,-13.075,-1.071
116.139374,0.981,-14.12,-1.016
116.149101,0.824,-14.511,-1.284
116.158828,0.392,-14.936,-1.359
116.168555,-0.118,-15.291,-1.382
116.178282,-0.706,-15.338,-1.111
116.188009,-0.824,-14.95,-0.605
116.197765,-1.216,-13.839,-0.13
116.207521,-1.177,-13.389,0.029
116.217277,-1.138,-13.129,0.593
116.227033,-1.255,-12.38,1.083
116.236789,-1.216,-12.266,1.342
116.246545,-1.451,-12.732,1.499
116.256301,-1.765,-12.998,1.652
116.266057,-1.883,-12.804,1.686
116.275813,-1.883,-12.264,1.781
116.285569,-1.608,-11.439,1.847
116.295325,-1.138,-10.698,1.938
116.305081,-0.785,-10.207,1.865
116.314837,-0.471,-9.728,1.631
116.324581,-0.118,-9.132,1.417
116.334325,0.039,-8.569,1.158
116.344069,0.039,-8.044,0.892
116.353813,-0.039,-7.771,0.701
116.363557,-0.196,-7.358,0.615
116.373301,-0.431,-6.828,0.549
116.383045,-0.628,-6.401,0.385
116.392789,-0.863,-6.408,0.424
116.402533,-0.981,-6.092,0.439
116.412277,-1.02,-5.892,0.435
116.422021,-1.059,-5.994,0.337
116.431765,-0.981,-6.072,0.324
116.441509,-0.863,-6.149,0.31
116.451253,-0.785,-6.11,0.317
116.460997,-0.706,-6.188,0.303
116.470752,-0.706,-6.438,0.14
116.480507,-0.549,-6.708,0.092
116.490262,-0.588,-7.087,-0.015
116.500017,-0.588,-7.39,-0.108
116.509772,-0.549,-7.583,-0.142
116.519527,-0.51,-7.79,-0.099
116.529282,-0.471,-7.919,-0.042
116.539037,-0.392,-7.883,0.203
116.548792,-0.235,-8.499,-0.144
116.558547,-0.235,-10.707,-0.494
116.568302,-0.235,-11.83,-0.453
116.578057,-0.118,-11.419,-0.301
116.587812,-0.039,-11.996,-0.641
116.597548,-0.039,-13.661,-0.457
116.607284,0.118,-14.111,0.061
116.61702,0.392,-14.154,-0.146
116.626756,0.51,-15.738,-0.425
116.636492,0.431,-17.043,-0.257
116.646228,0.588,-16.754,-0.086
116.655964,0.824,-15.975,0.011
116.6657,1.059,-15.584,0.279
116.675436,1.412,-15.302,0.488
116.685172,1.687,-14.786,0.5
116.694908,2.001,-14.245,0.595
116.704644,2.157,-13.582,0.672
116.71438,2.314,-13.111,0.715
116.724116,2.314,-12.861,0.879
116.733838,2.314,-12.218,1.072
116.74356,2.197,-11.543,1.31
116.753282,2.079,-11.073,1.354
116.763004,2.001,-10.693,1.46
116.772726,1.844,-10.237,1.581
116.782448,1.648,-9.728,1.631
116.79217,1.412,-9.155,1.771
116.801892,1.216,-8.491,1.849
116.811614,0.981,-7.867,1.919
116.821336,0.706,-7.673,1.953
116.831058,0.392,-7.769,1.817
116.84078,0.157,-7.96,1.544
116.850502,-0.039,-8.151,1.271
116.860224,-0.196,-8.162,1.11
116.869918,-0.235,-7.967,0.905
116.879612,-0.314,-7.694,0.715
116.889306,-0.353,-7.312,0.583
116.899,-0.353,-6.867,0.542
116.908694,-0.275,-6.544,0.519
116.918388,-0.275,-6.292,0.444
116.928082,-0.235,-6.201,0.38
116.937776,-0.196,-6.31,0.321
116.94747,-0.196,-6.549,0.319
116.957164,-0.118,-6.735,0.246
116.966858,-0.039,-7.006,0.199
116.976552,0.039,-7.315,0.144
116.986246,0.196,-7.406,0.208
116.99594,0.353,-7.412,0.246
117.005626,0.431,-7.644,0.206
117.015312,0.392,-7.812,0.256
117.024998,0.471,-7.78,0.301
117.034684,0.431,-7.671,0.36
117.04437,0.353,-7.569,0.458
117.054056,0.275,-7.467,0.555
117.063742,0.196,-7.467,0.555
117.073428,0.157,-8.898,-0.135
117.083114,-0.157,-10.728,-0.378
117.0928,-0.353,-11.534,-0.321
117.102486,-0.196,-11.605,-0.373
117.112172,-0.235,-11.916,-0.189
117.121858,-0.392,-12.598,0.288
117.131536,-0.431,-13.554,0.518
117.141214,-0.549,-14.518,0.786
117.150892,-0.706,-15.352,0.997
117.16057,-0.785,-16.049,1.113
117.170248,-0.981,-16.063,1.191
117.179926,-1.138,-15.645,1.304
117.189604,-1.216,-15.079,1.484
117.199282,-1.255,-14.334,1.774
117.20896,-1.098,-13.55,2.072
117.218638,-0.981,-13.022,2.245
117.228316,-1.02,-13.011,2.406
117.237994,-0.785,-12.832,2.517
117.247672,-0.745,-12.529,2.61
117.25735,-0.706,-12.086,2.808
117.267008,-0.824,-11.493,2.833
117.276666,-0.824,-11.005,2.999
117.286324,-0.785,-10.573,3.035
117.295982,-0.785,-10.121,2.955
117.30564,-0.745,-9.616,2.805
117.315298,-0.667,-9.073,2.662
117.324956,-0.667,-8.516,2.442
117.334614,-0.706,-7.98,2.337
117.344272,-0.745,-7.508,2.142
117.35393,-0.745,-7.042,1.985
117.363588,-0.824,-6.717,1.723
117.373246,-0.863,-6.278,1.721
117.382904,-0.785,-5.601,1.721
117.392562,-0.863,-5.213,1.55
117.40223,-0.902,-5.049,1.3
117.411898,-0.863,-5.292,1.098
117.421566,-0.902,-5.458,0.91
117.431234,-0.902,-5.592,0.767
117.440902,-0.863,-5.719,0.585
117.45057,-0.863,-5.892,0.435
117.460238,-0.863,-6.092,0.439
117.469906,-0.863,-6.394,0.346
117.479574,-1.02,-6.808,0.433
117.489242,-1.177,-7.06,0.508
117.49891,-1.255,-7.165,0.649
117.508578,-1.216,-7.353,0.815
117.518246,-0.981,-8.183,0.549
117.527933,-0.902,-9.801,0.463
117.53762,-0.706,-11.116,0.47
117.547307,-0.549,-11.427,0.654
117.556994,-0.353,-12.046,0.545
117.566681,-0.353,-12.641,0.758
117.576368,-0.314,-13.032,1.168
117.586055,-0.196,-13.779,1.115
117.595742,-0.118,-14.818,1.131
117.605429,0,-15.865,1.425
117.615116,0.235,-16.24,1.518
117.624803,0.431,-16.158,1.731
117.63449,0.706,-15.856,1.825
117.644177,1.02,-15.322,1.959
117.653864,1.334,-14.729,1.984
117.663553,1.608,-14.168,1.963
117.673242,1.804,-13.581,2.027
117.682931,2.04,-12.841,2.117
117.69262,2.04,-12.177,2.195
117.702309,2.04,-11.643,2.328
117.711998,2.001,-11.218,2.403
117.721687,2.001,-11.007,2.56
117.731376,1.961,-10.866,2.665
117.741065,1.844,-10.802,2.756
117.750754,1.687,-10.564,2.758
117.760443,1.569,-10.118,2.717
117.770132,1.334,-9.509,2.426
117.779821,1.138,-8.855,2.103
117.78951,0.863,-8.394,1.746
117.799221,0.588,-7.914,1.512
117.808932,0.431,-7.267,1.228
117.818643,0.275,-6.646,1.098
117.828354,0.196,-5.942,0.944
117.838065,0.196,-5.329,0.853
117.847776,0.157,-5.017,0.669
117.857487,0.039,-4.913,0.528
117.867198,0,-5.008,0.392
117.876909,-0.039,-5.058,0.223
117.88662,0,-5.16,0.126
117.896331,0,-5.199,0.119
117.906042,0.039,-5.354,0.092
117.915753,0,-5.656,-0.001
117.925448,0.039,-6.165,-0.051
117.935143,0.039,-6.533,0.003
117.944838,0.039,-6.74,0.046
117.954533,0.039,-6.922,0.174
117.964228,0,-8.308,-0.549
117.973923,-0.196,-10.807,-0.83
117.983618,-0.51,-11.907,-0.466
117.993313,-0.392,-12.153,-0.43
118.003008,-0.588,-12.15,0.009
118.012703,-0.667,-12.657,0.397
118.022398,-0.667,-13.627,0.704
118.032093,-0.431,-14.654,0.881
118.041788,-0.51,-15.94,1.172
118.051483,-0.51,-16.756,1.507
118.061178,-0.431,-17.017,1.859
118.070884,-0.471,-16.704,2.113
118.08059,-0.667,-16.092,2.261
118.090296,-0.824,-15.54,2.518
118.100002,-0.902,-14.89,2.672
118.109708,-0.981,-14.265,2.742
118.119414,-1.02,-13.588,2.742
118.12912,-1.059,-12.918,2.781
118.138826,-1.059,-12.575,2.642
118.148532,-1.098,-12.168,2.594
118.158238,-1.098,-11.723,2.553
118.167944,-1.098,-11.07,2.469
118.17765,-1.059,-10.296,2.367
118.187356,-0.981,-9.746,2.185
118.197049,-0.981,-9.221,1.919
118.206742,-0.981,-8.716,1.769
118.216435,-0.941,-8.128,1.594
118.226128,-0.941,-7.623,1.444
118.235821,-0.941,-7.183,1.203
118.245514,-0.941,-6.994,1.037
118.255207,-0.941,-6.774,0.917
118.2649,-0.941,-6.494,0.687
118.274593,-0.941,-6.383,0.508
118.284286,-0.941,-6.099,0.478
118.293979,-0.785,-5.858,0.242
118.303672,-0.745,-5.901,0.035
118.313365,-0.745,-6.106,-0.16
118.323058,-0.745,-6.169,-0.251
118.332736,-0.667,-5.956,-0.333
118.342414,-0.706,-5.776,-0.222
118.352092,-0.785,-5.724,-0.292
118.36177,-0.863,-5.988,-0.379
118.371448,-0.902,-6.49,-0.467
118.381126,-0.981,-7.069,-0.569
118.390804,-1.059,-7.656,-0.633
118.400482,-1.059,-8.017,-0.617
118.41016,-1.098,-8.283,-0.465
118.419838,-1.059,-8.401,-0.247
118.429516,-1.098,-8.526,0.01
118.439194,-0.941,-9.183,-0.106
118.448872,-0.902,-9.996,-0.01
118.45855,-0.863,-10.882,0.272
118.468248,-0.745,-11.175,0.579
118.477946,-0.745,-12.082,0.299
118.487644,-0.824,-13.491,0.609
118.497342,-0.785,-14.211,1.079
118.50704,-0.588,-14.895,1.118
118.516738,-0.549,-15.263,1.172
118.526436,-0.431,-15.683,1.297
118.536134,-0.314,-15.645,1.304
118.545832,-0.275,-15.181,1.386
118.55553,-0.118,-14.679,1.475
118.565228,0.039,-14.041,1.468
118.574926,0.235,-13.725,1.483
118.584624,0.471,-13.345,1.59
118.594321,0.706,-12.888,1.711
118.604018,0.981,-12.354,1.845
118.613715,1.216,-11.814,1.94
118.623412,1.451,-11.511,2.033
118.633109,1.648,-11.248,2.119
118.642806,1.765,-10.946,2.213
118.652503,1.844,-10.521,2.287
118.6622,1.804,-10.012,2.337
118.671897,1.726,-9.496,2.349
118.681594,1.569,-8.903,2.374
118.691291,1.373,-8.45,2.294
118.700988,1.059,-8.21,2.058
118.710685,0.785,-7.989,1.937
118.720382,0.549,-7.833,1.726
118.73009,0.275,-7.612,1.605
118.739798,0.078,-7.192,1.48
118.749506,-0.039,-6.624,1.421
118.759214,-0.157,-5.978,1.376
118.768922,-0.157,-5.565,1.289
118.77863,-0.196,-5.363,1.046
118.788338,-0.157,-5.406,0.839
118.798046,-0.078,-5.624,0.721
118.807754,-0.039,-5.726,0.623
118.817462,0.118,-5.713,0.546
118.82717,0,-5.713,0.546
118.836878,0.039,-5.86,0.48
118.846586,0.078,-6.074,0.562
118.856294,0.039,-6.256,0.689
118.865994,0.118,-6.374,0.908
118.875694,0.235,-6.542,0.958
118.885394,0.275,-7.858,0.287
118.895094,0.039,-10.416,0.115
118.904794,-0.157,-11.702,0.406
118.914494,0.039,-12.052,0.583
118.924194,-0.078,-12.402,0.761
118.933894,-0.196,-13.348,1.152
118.943594,-0.196,-14.406,1.284
118.953294,-0.157,-16.297,0.711
118.962994,-0.588,-17.917,0.864
118.972694,-0.745,-18.201,1.57
118.982394,-0.51,-17.138,1.638
118.992094,-0.628,-15.792,1.916
119.001804,-0.902,-15.186,1.863
119.011514,-1.02,-14.118,2.131
119.021224,-1.098,-13.145,2.263
119.030934,-1.059,-12.85,2.395
119.040644,-1.059,-12.747,2.492
119.050354,-0.941,-12.245,2.581
119.060064,-0.824,-11.938,2.874
119.069774,-0.745,-11.425,3.124
119.079484,-0.549,-11.411,3.047
119.089194,-0.392,-11.327,3.022
119.098904,-0.118,-11.282,2.99
119.108614,0.196,-10.973,3.044
119.118324,0.353,-10.521,2.965
119.128034,0.549,-10.009,2.776
119.137722,0.706,-9.209,2.758
119.14741,0.667,-8.798,2.233
119.157098,0.51,-8.014,2.53
119.166786,0.353,-7.444,2.232
119.176474,0.078,-7.105,1.894
119.186162,-0.157,-6.558,1.951
119.19585,-0.353,-6.033,1.685
119.205538,-0.51,-5.772,1.332
119.215226,-0.745,-5.981,0.937
119.224914,-0.863,-6.281,0.605
119.234602,-1.059,-6.201,0.38
119.24429,-1.216,-5.76,0.139
119.253978,-1.412,-5.199,0.119
119.263666,-1.334,-4.179,-0.02
119.273355,-1.53,-4.431,0.055
119.283044,-1.491,-4.824,0.026
119.292733,-1.53,-5.731,-0.254
119.302422,-1.569,-6.644,-0.494
119.312111,-1.451,-7.012,-0.44
119.3218,-1.373,-7.058,-0.408
119.331489,-1.255,-7.267,-0.803
119.341178,-1.059,-8.894,-1.289
119.350867,-0.824,-11.112,-2.039
119.360556,-0.902,-12.162,-1.507
119.370245,-0.549,-12.13,-1.462
119.379934,-0.471,-12.264,-1.605
119.389623,-0.628,-13.046,-1.464
119.399334,-0.706,-13.911,-1.298
119.409045,-0.667,-14.829,-1.061
119.418756,-0.588,-15.722,-0.741
119.428467,-0.431,-16.24,-0.514
119.438178,-0.196,-16.236,-0.314
119.447889,0,-16.018,-0.195
119.4576,0.118,-15.986,-0.15
119.467311,0.118,-15.602,0.157
119.477022,0.314,-14.988,0.066
119.486733,0.51,-14.7,0.236
119.496444,0.588,-14.109,0.5
119.506155,0.863,-13.425,0.461
119.515866,0.941,-12.766,0.338
119.525595,0.981,-12.471,0.47
119.535324,1.177,-11.723,0.522
119.545053,1.216,-10.937,0.581
119.554782,1.216,-10.26,0.581
119.564511,1.216,-9.744,0.592
119.57424,1.138,-9.235,0.642
119.583969,0.981,-8.569,0.481
119.593698,0.824,-8.014,0.499
119.603427,0.706,-7.517,0.387
119.613156,0.51,-7.219,0.281
119.622885,0.353,-7.062,0.069
119.632614,0.157,-6.906,-0.142
119.642343,0.039,-6.615,-0.21
119.652072,-0.078,-6.054,-0.231
119.661803,-0.196,-5.601,-0.311
119.671534,-0.235,-5.381,-0.431
