Time,AccelerometerX,AccelerometerY,AccelerometerZ
80.008534,0.235,-9.987,1.744
80.018236,0.235,-10.039,1.815
80.027938,0.235,-10.039,1.815
80.03764,0.235,-10.084,1.847
80.047342,0.235,-10.123,1.84
80.057044,0.235,-10.175,1.91
80.066746,0.275,-10.175,1.91
80.076448,0.235,-10.221,1.942
80.08615,0.235,-10.175,1.91
80.095852,0.157,-10.137,1.917
80.105554,0.196,-10.105,1.962
80.115256,0.157,-10.066,1.969
80.124984,0.196,-10.028,1.976
80.134712,0.118,-10.021,1.937
80.14444,0.118,-10.066,1.969
80.154168,0.118,-10.028,1.976
80.163896,0.078,-9.996,2.021
80.173624,0.078,-9.989,1.983
80.183352,0.039,-10.08,2.047
80.19308,0.039,-10.08,2.047
80.202808,0.039,-10.087,2.085
80.212536,0.039,-10.08,2.047
80.222264,0.039,-10.003,2.06
80.231992,0,-10.003,2.06
80.24172,0.039,-10.003,2.06
80.251469,0.039,-9.971,2.106
80.261218,0.039,-9.964,2.067
80.270967,0.039,-9.93,1.874
80.280716,0.039,-9.982,1.944
80.290465,0.039,-10.028,1.976
80.300214,0.039,-10.028,1.976
80.309963,0,-10.021,1.937
80.319712,0,-10.014,1.899
80.329461,0,-10.007,1.86
80.33921,0,-9.962,1.828
80.348959,0,-9.923,1.835
80.358708,0,-9.916,1.797
80.368457,0,-9.903,1.719
80.378206,0,-9.941,1.712
80.387943,0,-9.889,1.642
80.39768,0,-9.934,1.674
80.407417,-0.039,-10.018,1.699
80.417154,-0.039,-10.012,1.66
80.426891,0,-10.005,1.622
80.436628,0.039,-10.012,1.66
80.446365,0.039,-9.973,1.667
80.456102,0.039,-9.966,1.628
80.465839,0,-10.005,1.622
80.475576,0,-9.991,1.544
80.485313,0,-9.9,1.481
80.49505,0,-9.9,1.481
80.504787,0,-9.9,1.481
80.514524,0,-9.939,1.474
80.524266,0.078,-9.939,1.474
80.534008,0.078,-9.953,1.551
80.54375,0.078,-9.978,1.467
80.553492,0.039,-9.971,1.428
80.563234,0.039,-9.957,1.351
80.572976,0,-9.989,1.306
80.582718,0,-9.989,1.306
80.59246,0,-9.975,1.228
80.602202,0.039,-9.969,1.19
80.611944,0.039,-10,1.144
80.621686,0.039,-10.007,1.183
80.631428,0.078,-10,1.144
80.64117,0.078,-9.969,1.19
80.65089,0.078,-9.93,1.197
80.66061,0.078,-9.846,1.172
80.67033,0.039,-9.853,1.21
80.68005,0.078,-9.782,1.263
80.68977,0.078,-9.769,1.185
80.69949,0.078,-9.807,1.178
80.70921,0.078,-9.8,1.14
80.71893,0.078,-9.839,1.133
80.72865,0.078,-9.871,1.088
80.73837,0.078,-9.948,1.074
80.74809,0.078,-9.916,1.119
80.75781,0.039,-9.962,1.151
80.76753,0.078,-10.046,1.176
80.77725,0,-10.2,1.149
80.786969,-0.039,-10.278,1.135
80.796688,-0.039,-10.362,1.16
80.806407,-0.039,-10.394,1.115
80.816126,-0.078,-10.239,1.142
80.825845,-0.078,-10.169,1.194
80.835564,-0.039,-10.137,1.24
80.845283,0,-10.234,1.342
80.855002,0,-10.332,1.444
80.864721,0.039,-10.248,1.419
80.87444,0.078,-10.164,1.394
80.884159,0.078,-10.35,1.322
80.893878,0.157,-10.621,1.274
80.903597,0.196,-10.821,1.279
80.913291,0.314,-10.93,1.219
80.922985,0.314,-11.007,1.206
80.932679,0.275,-10.793,1.124
80.942373,0.275,-10.575,1.242
80.952067,0.275,-10.278,1.135
80.961761,0.196,-10.173,0.994
80.971455,0.157,-10.187,1.072
80.981149,0.157,-10.205,0.949
80.990843,0.157,-10.255,0.781
81.000537,0.118,-10.235,0.665
81.010231,0.118,-10.323,0.49
81.019925,0.157,-10.316,0.451
81.029619,0.157,-10.194,0.433
81.039313,0.157,-10.03,0.183
81.049001,0.118,-9.894,0.088
81.058689,0.118,-9.821,-0.099
81.068377,0.078,-9.685,-0.194
81.078065,0.039,-9.382,-0.101
81.087753,0.039,-9.26,-0.119
81.097441,0.039,-9.169,-0.183
81.107129,0.078,-9.246,-0.196
81.116817,0.118,-9.394,-0.262
81.126505,0.118,-9.471,-0.276
81.136193,0.118,-9.426,-0.308
81.145881,0.118,-9.38,-0.34
81.155569,0.078,-9.426,-0.308
81.165257,0.118,-9.503,-0.321
81.174945,0.039,-9.523,-0.205
81.184633,0.039,-9.607,-0.18
81.194321,0.118,-9.614,-0.142
81.204009,0.118,-9.614,-0.142
81.213697,0.118,-9.698,-0.117
81.223385,0.157,-9.744,-0.085
81.233073,0.157,-9.828,-0.06
81.242761,0.196,-9.919,0.004
81.252449,0.157,-10.003,0.029
81.262137,0.196,-10.132,0.085
81.271825,0.196,-10.178,0.117
81.281513,0.196,-10.185,0.156
81.291201,0.196,-10.23,0.188
81.300889,0.196,-10.23,0.188
81.310552,0.196,-10.23,0.188
81.320215,0.157,-10.237,0.226
81.329878,0.157,-10.237,0.226
81.339541,0.118,-10.237,0.226
81.349204,0.157,-10.244,0.265
81.358867,0.118,-10.244,0.265
81.36853,0.157,-10.244,0.265
81.378193,0.118,-10.212,0.31
81.387856,0.157,-10.219,0.349
81.397519,0.196,-10.18,0.356
81.407182,0.196,-10.103,0.37
81.416845,0.118,-10.096,0.331
81.426508,0.078,-10.096,0.331
81.436171,0.118,-10.135,0.324
81.44583,0.078,-10.219,0.349
81.455489,0.039,-10.25,0.304
81.465148,0.039,-10.212,0.31
81.474807,0.039,-10.219,0.349
81.484466,0.078,-10.173,0.317
81.494125,0.039,-10.187,0.395
81.503784,0.078,-10.116,0.447
81.513443,0.039,-10.11,0.408
81.523102,0,-10.148,0.401
81.532761,0.039,-10.148,0.401
81.54242,0.039,-10.18,0.356
81.552079,0.039,-10.141,0.363
81.561738,0.078,-10.148,0.401
81.571408,0.118,-10.11,0.408
81.581078,0.078,-10.071,0.415
81.590748,0.078,-10.032,0.422
81.600418,0.078,-10.039,0.46
81.610088,0.118,-10.032,0.422
81.619758,0.118,-10.078,0.454
81.629428,0.118,-10.116,0.447
81.639098,0.078,-10.123,0.485
81.648768,0.078,-10.123,0.485
81.658438,0.118,-10.123,0.485
81.668108,0.118,-10.123,0.485
81.677778,0.157,-10.123,0.485
81.687448,0.157,-10.085,0.492
81.697118,0.157,-10.085,0.492
81.706777,0.157,-10.116,0.447
81.716436,0.157,-10.116,0.447
81.726095,0.157,-10.071,0.415
81.735754,0.196,-10.007,0.506
81.745413,0.196,-10.039,0.46
81.755072,0.235,-10.046,0.499
81.764731,0.235,-10.123,0.485
81.77439,0.235,-10.169,0.517
81.784049,0.235,-10.175,0.556
81.793708,0.235,-10.207,0.51
81.803367,0.235,-10.253,0.542
81.813026,0.275,-10.291,0.535
81.822685,0.275,-10.33,0.529
81.832344,0.275,-10.369,0.522
81.842014,0.275,-10.369,0.522
81.851684,0.275,-10.33,0.529
81.861354,0.275,-10.291,0.535
81.871024,0.275,-10.285,0.497
81.880694,0.275,-10.246,0.504
81.890364,0.275,-10.2,0.472
81.900034,0.235,-10.116,0.447
81.909704,0.275,-10.11,0.408
81.919374,0.235,-10.057,0.338
81.929044,0.275,-10.051,0.299
81.938714,0.235,-10.044,0.26
81.948384,0.196,-9.998,0.229
81.958054,0.196,-9.998,0.229
81.96772,0.196,-9.953,0.197
81.977386,0.196,-9.914,0.204
81.987052,0.196,-9.894,0.088
81.996718,0.157,-9.887,0.049
82.006384,0.157,-9.901,0.126
82.01605,0.118,-9.907,0.165
82.025716,0.157,-9.869,0.172
82.035382,0.157,-9.901,0.126
82.045048,0.157,-9.901,0.126
82.054714,0.157,-9.946,0.158
82.06438,0.157,-9.978,0.113
82.074046,0.196,-9.991,0.19
82.083712,0.196,-9.985,0.151
82.093378,0.157,-9.946,0.158
82.103061,0.157,-9.991,0.19
82.112744,0.157,-10.03,0.183
82.122427,0.118,-10.076,0.215
82.13211,0.196,-10.076,0.215
82.141793,0.157,-10.082,0.254
82.151476,0.118,-10.128,0.285
82.161159,0.118,-10.128,0.285
82.170842,0.196,-10.089,0.292
82.180525,0.157,-10.082,0.254
82.190208,0.157,-10.089,0.292
82.199891,0.235,-10.082,0.254
82.209574,0.235,-10.089,0.292
82.219257,0.235,-10.128,0.285
82.228933,0.235,-10.076,0.215
82.238609,0.314,-10.128,0.285
82.248285,0.314,-10.173,0.317
82.257961,0.275,-10.212,0.31
82.267637,0.314,-10.173,0.317
82.277313,0.314,-10.166,0.279
82.286989,0.314,-10.166,0.279
82.296665,0.275,-10.166,0.279
82.306341,0.275,-10.121,0.247
82.316017,0.275,-10.089,0.292
82.325693,0.275,-10.114,0.208
82.335369,0.275,-10.044,0.26
82.345045,0.235,-10.044,0.26
82.354721,0.196,-9.998,0.229
82.364411,0.235,-9.96,0.235
82.374101,0.157,-9.985,0.151
82.383791,0.157,-9.991,0.19
82.393481,0.118,-10.03,0.183
82.403171,0.157,-10.107,0.17
82.412861,0.157,-10.069,0.176
82.422551,0.118,-10.107,0.17
82.432241,0.118,-10.107,0.17
82.441931,0.118,-10.107,0.17
82.451621,0.118,-10.062,0.138
82.461311,0.078,-10.069,0.176
82.471001,0.118,-10.069,0.176
82.480691,0.078,-10.062,0.138
82.490375,0.078,-10.062,0.138
82.500059,0.039,-10.023,0.145
82.509743,0.039,-9.964,0.035
82.519427,0.039,-9.919,0.004
82.529111,0,-9.887,0.049
82.538795,0,-9.855,0.095
82.548479,-0.039,-9.848,0.056
82.558163,0,-9.848,0.056
82.567847,0,-9.848,0.056
82.577531,0,-9.894,0.088
82.587215,0,-9.932,0.081
82.596899,0.039,-9.971,0.074
82.606583,0.078,-10.016,0.106
82.616267,0.078,-10.016,0.106
82.625909,0.118,-10.062,0.138
82.635551,0.196,-10.016,0.106
82.645193,0.235,-10.101,0.131
82.654835,0.235,-10.107,0.17
82.664477,0.275,-10.076,0.215
82.674119,0.353,-10.089,0.292
82.683761,0.431,-10.064,0.376
82.693403,0.431,-10.064,0.376
82.703045,0.471,-10.025,0.383
82.712687,0.471,-10.071,0.415
82.722329,0.51,-10.046,0.499
82.731971,0.471,-10.046,0.499
82.741613,0.471,-10.053,0.538
82.751255,0.431,-10.053,0.538
82.760897,0.431,-10.098,0.569
82.770539,0.431,-10.098,0.569
82.780171,0.353,-10.13,0.524
82.789803,0.353,-10.214,0.549
82.799435,0.314,-10.214,0.549
82.809067,0.353,-10.266,0.62
82.818699,0.314,-10.273,0.658
82.828331,0.314,-10.248,0.742
82.837963,0.275,-10.248,0.742
82.847595,0.275,-10.132,0.763
82.857227,0.314,-10.1,0.808
82.866859,0.314,-10.146,0.84
82.876491,0.314,-10.153,0.879
82.886123,0.353,-10.23,0.865
82.895728,0.392,-10.3,0.813
82.905333,0.392,-10.3,0.813
82.914938,0.392,-10.262,0.819
82.924543,0.392,-10.223,0.826
82.934148,0.392,-10.178,0.794
82.943753,0.392,-10.146,0.84
82.953358,0.431,-10.153,0.879
82.962963,0.431,-10.146,0.84
82.972568,0.392,-10.146,0.84
82.982173,0.392,-10.139,0.801
82.991778,0.431,-10.094,0.769
83.001383,0.431,-10.094,0.769
83.010988,0.392,-10.094,0.769
83.020593,0.353,-10.139,0.801
83.030198,0.353,-10.1,0.808
83.039803,0.314,-10.114,0.885
83.049408,0.314,-10.146,0.84
83.059013,0.314,-10.107,0.847
83.068618,0.275,-10.062,0.815
83.078223,0.314,-10.03,0.86
83.087828,0.314,-10.069,0.854
83.097433,0.275,-10.107,0.847
83.107038,0.314,-10.107,0.847
83.116643,0.314,-10.1,0.808
83.126248,0.314,-10.069,0.854
83.135853,0.314,-10.03,0.86
83.145458,0.235,-9.978,0.79
83.155055,0.235,-9.932,0.758
83.164652,0.196,-9.939,0.797
83.174249,0.196,-9.953,0.874
83.183846,0.118,-9.894,0.765
83.193443,0.157,-9.939,0.797
83.20304,0.157,-9.9,0.804
83.212637,0.157,-9.953,0.874
83.222234,0.196,-9.991,0.867
83.231831,0.157,-9.998,0.906
83.241428,0.196,-9.998,0.906
83.251025,0.157,-10.037,0.899
83.260622,0.157,-10.037,0.899
83.270219,0.157,-10.044,0.938
83.279816,0.196,-10.082,0.931
83.28943,0.157,-10.05,0.976
83.299044,0.118,-10.044,0.938
83.308658,0.157,-10.057,1.015
83.318272,0.157,-10.012,0.983
83.327886,0.157,-10.019,1.022
83.3375,0.196,-9.98,1.028
83.347114,0.157,-10.025,1.06
83.356728,0.196,-10.032,1.099
83.366342,0.196,-10.116,1.124
83.375956,0.196,-10.109,1.085
83.38557,0.196,-10.18,1.033
83.395184,0.235,-10.141,1.04
83.404798,0.275,-10.109,1.085
83.414409,0.235,-10.078,1.131
83.42402,0.196,-10.078,1.131
83.433631,0.157,-10.091,1.208
83.443242,0.157,-10.046,1.176
83.452853,0.157,-10.046,1.176
83.462464,0.157,-10.007,1.183
83.472075,0.196,-10.007,1.183
83.481686,0.196,-10.007,1.183
83.491297,0.196,-10.039,1.138
83.500908,0.196,-10.084,1.169
83.510519,0.196,-10.116,1.124
83.52013,0.196,-10.194,1.11
83.529741,0.235,-10.194,1.11
83.539352,0.235,-10.155,1.117
83.548988,0.235,-10.13,1.201
83.558624,0.235,-10.098,1.247
83.56826,0.275,-10.091,1.208
83.577896,0.235,-10.091,1.208
83.587532,0.275,-10.053,1.215
83.597168,0.235,-10.039,1.138
83.606804,0.196,-10.046,1.176
83.61644,0.196,-10.053,1.215
83.626076,0.157,-10.053,1.215
83.635712,0.157,-10.098,1.247
83.645348,0.157,-10.098,1.247
83.654984,0.157,-10.137,1.24
83.66462,0.157,-10.144,1.278
83.674261,0.157,-10.116,1.124
83.683902,0.196,-10.123,1.163
83.693543,0.118,-10.071,1.092
83.703184,0.118,-10.078,1.131
83.712825,0.078,-10.084,1.169
83.722466,0.118,-10.046,1.176
83.732107,0.078,-10,1.144
83.741748,0.078,-9.969,1.19
83.751389,0.039,-10,1.144
83.76103,0.039,-9.962,1.151
83.770671,0.039,-9.916,1.119
83.780312,0.039,-9.962,1.151
83.789953,0.039,-9.955,1.113
83.799594,0.078,-9.923,1.158
83.809268,0,-9.916,1.119
83.818942,0,-9.994,1.106
83.828616,0.039,-10,1.144
83.83829,0,-10.071,1.092
83.847964,0.039,-10.116,1.124
83.857638,0.039,-10.109,1.085
83.867312,0.078,-10.071,1.092
83.876986,0.118,-10.109,1.085
83.88666,0.118,-10.109,1.085
83.896334,0.118,-10.148,1.079
83.906008,0.118,-10.141,1.04
83.915682,0.118,-10.134,1.001
83.925356,0.196,-10.128,0.963
83.935038,0.157,-10.05,0.976
83.94472,0.196,-10.019,1.022
83.954402,0.157,-10.019,1.022
83.964084,0.157,-9.973,0.99
83.973766,0.196,-9.935,0.997
83.983448,0.196,-9.987,1.067
83.99313,0.196,-10.019,1.022
84.002812,0.196,-10.019,1.022
84.012494,0.196,-10.064,1.053
84.022176,0.196,-10.134,1.001
84.031858,0.157,-10.141,1.04
84.04154,0.196,-10.173,0.994
84.051222,0.196,-10.173,0.994
84.060904,0.157,-10.141,1.04
84.070583,0.196,-10.044,0.938
84.080262,0.196,-10.089,0.969
84.089941,0.196,-10.064,1.053
84.09962,0.275,-10.064,1.053
84.109299,0.235,-10.012,0.983
84.118978,0.196,-10.012,0.983
84.128657,0.157,-10.044,0.938
84.138336,0.157,-10.044,0.938
84.148015,0.157,-10.044,0.938
84.157694,0.118,-10.037,0.899
84.167373,0.118,-10.044,0.938
84.177052,0.039,-10.044,0.938
84.186731,0.039,-10.012,0.983
84.19641,0.078,-10.005,0.944
84.206086,0.078,-10.019,1.022
84.215762,0.118,-10.019,1.022
84.225438,0.078,-9.98,1.028
84.235114,0.078,-10.012,0.983
84.24479,0.078,-10.012,0.983
84.254466,0.078,-10.05,0.976
84.264142,0.039,-10.089,0.969
84.273818,0.078,-10.128,0.963
84.283494,0,-10.166,0.956
84.29317,0.039,-10.159,0.917
84.302846,0.039,-10.159,0.917
84.312522,0.039,-10.166,0.956
84.322198,0.039,-10.089,0.969
84.331874,0.039,-10.05,0.976
84.341569,0.039,-10.005,0.944
84.351264,0.078,-9.973,0.99
84.360959,0.078,-10.012,0.983
84.370654,0.078,-9.973,0.99
84.380349,0.078,-9.966,0.951
84.390044,0.078,-9.966,0.951
84.399739,0.039,-9.935,0.997
84.409434,0.078,-9.935,0.997
84.419129,0.118,-9.98,1.028
84.428824,0.118,-10.005,0.944
84.438519,0.157,-10.044,0.938
84.448214,0.118,-10.044,0.938
84.457909,0.118,-10.089,0.969
84.467615,0.157,-10.096,1.008
84.477321,0.118,-10.159,0.917
84.487027,0.118,-10.159,0.917
84.496733,0.196,-10.159,0.917
84.506439,0.196,-10.114,0.885
84.516145,0.196,-10.075,0.892
84.525851,0.196,-10.075,0.892
84.535557,0.196,-10.037,0.899
84.545263,0.196,-9.998,0.906
84.554969,0.196,-9.966,0.951
84.564675,0.196,-9.966,0.951
84.574381,0.157,-9.998,0.906
84.584087,0.157,-10.037,0.899
84.593793,0.157,-10.037,0.899
84.603503,0.157,-10.037,0.899
84.613213,0.118,-9.991,0.867
84.622923,0.196,-10.03,0.86
84.632633,0.196,-10.023,0.822
84.642343,0.157,-10.03,0.86
84.652053,0.157,-10.03,0.86
84.661763,0.196,-10.03,0.86
84.671473,0.196,-10.03,0.86
84.681183,0.235,-10.1,0.808
84.690893,0.196,-10.1,0.808
84.700603,0.235,-10.1,0.808
84.710313,0.275,-10.069,0.854
84.720023,0.275,-10.03,0.86
84.729733,0.275,-10.1,0.808
84.739467,0.314,-10.223,0.826
84.749201,0.314,-10.294,0.774
84.758935,0.235,-10.223,0.826
84.768669,0.196,-10.121,0.924
84.778403,0.196,-10.159,0.917
84.788137,0.157,-10.198,0.91
84.797871,0.118,-10.23,0.865
84.807605,0.118,-10.153,0.879
84.817339,0.118,-10.1,0.808
84.827073,0.157,-10.132,0.763
84.836807,0.118,-10.171,0.756
84.846541,0.118,-10.055,0.776
84.856275,0.039,-9.939,0.797
84.866004,0.039,-9.823,0.817
84.875733,0,-9.778,0.785
84.885462,-0.039,-9.764,0.708
84.895191,-0.039,-9.687,0.722
84.90492,-0.039,-9.732,0.753
84.914649,0,-9.816,0.779
84.924378,0.078,-9.894,0.765
84.934107,0.078,-9.932,0.758
84.943836,0.078,-9.978,0.79
84.953565,0.078,-10.023,0.822
84.963294,0.118,-10.107,0.847
84.973023,0.118,-10.153,0.879
84.982752,0.118,-10.159,0.917
84.992481,0.157,-10.121,0.924
85.002224,0.118,-10.082,0.931
85.011967,0.157,-10.075,0.892
85.02171,0.157,-10.153,0.879
85.031453,0.157,-10.128,0.963
85.041196,0.118,-10.121,0.924
85.050939,0.078,-10.134,1.001
85.060682,0.118,-10.096,1.008
85.070425,0.118,-10.057,1.015
85.080168,0.118,-10.064,1.053
85.089911,0.078,-10.057,1.015
85.099654,0.039,-10.096,1.008
85.109397,0.039,-10.141,1.04
85.11914,0.039,-10.173,0.994
85.128871,0.039,-10.244,0.942
85.138602,0.078,-10.244,0.942
85.148333,0.118,-10.205,0.949
85.158064,0.196,-10.128,0.963
85.167795,0.157,-10.082,0.931
85.177526,0.196,-10.082,0.931
85.187257,0.196,-10.005,0.944
85.196988,0.157,-10.005,0.944
85.206719,0.078,-10.005,0.944
85.21645,0.078,-9.966,0.951
85.226181,0.078,-9.973,0.99
85.235912,0.039,-9.973,0.99
85.245643,0.039,-10.05,0.976
85.255374,0.078,-10.082,0.931
85.265114,0.078,-10.075,0.892
85.274854,0.078,-10.075,0.892
85.284594,0.078,-10.121,0.924
85.294334,0.078,-10.128,0.963
85.304074,0.078,-10.044,0.938
85.313814,0.078,-10.05,0.976
85.323554,0.078,-10.005,0.944
85.333294,0.078,-10.037,0.899
85.343034,0.118,-10.044,0.938
85.352774,0.078,-9.998,0.906
85.362514,0.118,-10.037,0.899
85.372254,0.118,-10.044,0.938
85.381994,0.078,-10.037,0.899
85.391719,0.078,-10.037,0.899
85.401444,0.078,-10.044,0.938
85.411169,0.039,-10.03,0.86
85.420894,0.078,-10.062,0.815
85.430619,0.039,-10.107,0.847
85.440344,0.078,-10.069,0.854
85.450069,0.078,-10.044,0.938
85.459794,0.078,-10.037,0.899
85.469519,0.078,-10.082,0.931
85.479244,0.039,-10.153,0.879
85.488969,0.039,-10.114,0.885
85.498694,0.039,-10.114,0.885
85.508419,0.039,-10.037,0.899
85.518144,0,-10.044,0.938
85.52789,0.039,-9.98,1.028
85.537636,-0.039,-9.939,0.797
85.547382,-0.039,-9.946,0.835
85.557128,0,-9.882,0.926
85.566874,0,-9.928,0.958
85.57662,0,-10.03,0.86
85.586366,0,-10.159,0.917
85.596112,-0.039,-10.241,0.704
85.605858,0,-9.96,0.913
85.615604,0.039,-9.76,0.908
85.62535,0.039,-9.805,0.94
85.635096,0.039,-9.805,0.94
85.644842,0.039,-9.96,0.913
85.654586,0.039,-9.966,0.951
85.66433,0.078,-10.005,0.944
85.674074,0.118,-10.044,0.938
85.683818,0.118,-10.121,0.924
85.693562,0.118,-10.166,0.956
85.703306,0.078,-10.173,0.994
85.71305,0.118,-10.225,1.065
85.722794,0.118,-10.225,1.065
85.732538,0.118,-10.18,1.033
85.742282,0.078,-10.187,1.072
85.752026,0.078,-10.225,1.065
85.76177,0.039,-10.225,1.065
85.771514,0,-10.194,1.11
85.781258,0.039,-10.155,1.117
85.790978,0,-10.109,1.085
85.800698,0,-10.109,1.085
85.810418,0,-10.071,1.092
85.820138,0,-10.039,1.138
85.829858,0,-10.007,1.183
85.839578,0,-9.994,1.106
85.849298,0,-9.955,1.113
85.859018,0.039,-9.955,1.113
85.868738,0.039,-9.916,1.119
85.878458,0.039,-9.955,1.113
85.888178,0.078,-9.948,1.074
85.897898,0.039,-9.962,1.151
85.907618,0.039,-10.032,1.099
85.917338,0.039,-10.039,1.138
85.927028,0.078,-10.084,1.169
85.936718,0.078,-10.098,1.247
85.946408,0.078,-10.123,1.163
85.956098,0.078,-10.084,1.169
85.965788,0.118,-10.084,1.169
85.975478,0.118,-10.078,1.131
85.985168,0.157,-10.078,1.131
85.994858,0.157,-10.084,1.169
86.004548,0.157,-10.078,1.131
86.014238,0.196,-10.084,1.169
86.023928,0.157,-10.084,1.169
86.033618,0.157,-10.084,1.169
86.043308,0.157,-10.084,1.169
86.052998,0.235,-10.109,1.085
86.062691,0.196,-10.155,1.117
86.072384,0.196,-10.116,1.124
86.082077,0.196,-10.148,1.079
86.09177,0.196,-10.148,1.079
86.101463,0.157,-10.141,1.04
86.111156,0.157,-10.134,1.001
86.120849,0.157,-10.134,1.001
86.130542,0.118,-10.096,1.008
86.140235,0.118,-10.089,0.969
86.149928,0.078,-10.089,0.969
86.159621,0.078,-10.082,0.931
86.169314,0.118,-10.089,0.969
86.179007,0.078,-10.012,0.983
86.188688,0.078,-9.998,0.906
86.198369,0.118,-9.998,0.906
86.20805,0.157,-9.928,0.958
86.217731,0.157,-9.921,0.919
86.227412,0.118,-9.928,0.958
86.237093,0.157,-9.921,0.919
86.246774,0.118,-9.953,0.874
86.256455,0.039,-9.96,0.913
86.266136,0.078,-9.96,0.913
86.275817,0.078,-9.966,0.951
86.285498,0.078,-10.005,0.944
86.295179,0.039,-10.05,0.976
86.30486,0.039,-9.998,0.906
86.314541,0.039,-9.998,0.906
86.324212,0.039,-9.96,0.913
86.333883,0.039,-9.889,0.965
86.343554,0.078,-9.882,0.926
86.353225,0.118,-9.85,0.972
86.362896,0.157,-9.85,0.972
86.372567,0.157,-9.896,1.003
86.382238,0.235,-9.948,1.074
86.391909,0.235,-9.994,1.106
86.40158,0.275,-10.091,1.208
86.411251,0.314,-10.137,1.24
86.420922,0.275,-10.182,1.272
86.430593,0.314,-10.266,1.297
86.440264,0.314,-10.312,1.328
86.449935,0.275,-10.357,1.36
86.459585,0.275,-10.389,1.315
86.469235,0.392,-10.355,1.122
86.478885,0.353,-10.323,1.167
86.488535,0.353,-10.284,1.174
86.498185,0.353,-10.214,1.226
86.507835,0.314,-10.2,1.149
86.517485,0.353,-10.071,1.092
86.527135,0.353,-10.064,1.053
86.536785,0.314,-9.98,1.028
86.546435,0.353,-9.896,1.003
86.556085,0.353,-9.844,0.933
86.565735,0.314,-9.798,0.901
86.575385,0.353,-9.753,0.869
86.585035,0.353,-9.785,0.824
86.594692,0.353,-9.823,0.817
86.604349,0.314,-9.894,0.765
86.614006,0.314,-9.887,0.726
86.623663,0.353,-9.855,0.772
86.63332,0.314,-9.907,0.842
86.642977,0.235,-9.953,0.874
86.652634,0.235,-9.998,0.906
86.662291,0.275,-9.998,0.906
86.671948,0.275,-10.044,0.938
86.681605,0.196,-10.082,0.931
86.691262,0.196,-10.128,0.963
86.700919,0.235,-10.141,1.04
86.710576,0.235,-10.141,1.04
86.720253,0.275,-10.109,1.085
86.72993,0.157,-10.123,1.163
86.739607,0.235,-10.162,1.156
86.749284,0.275,-10.2,1.149
86.758961,0.275,-10.2,1.149
86.768638,0.275,-10.123,1.163
86.778315,0.235,-10,1.144
86.787992,0.196,-9.93,1.197
86.797669,0.157,-9.969,1.19
86.807346,0.118,-10.032,1.099
86.817023,0.078,-10.064,1.053
86.8267,0.078,-9.969,1.19
86.836377,0.039,-9.93,1.197
86.846054,0.039,-10.134,1.001
86.855727,0.078,-10.269,0.858
86.8654,0.039,-10.141,1.04
86.875073,0.039,-10.039,1.138
86.884746,0.118,-9.962,1.151
86.894419,0.118,-10.046,1.176
86.904092,0.118,-10.084,1.169
86.913765,0.157,-10.091,1.208
86.923438,0.118,-10.098,1.247
86.933111,0.118,-10.021,1.26
86.942784,0.118,-10.021,1.26
86.952457,0.157,-10.021,1.26
86.96213,0.157,-9.982,1.267
86.971803,0.157,-9.975,1.228
86.981476,0.157,-10.014,1.222
86.991171,0.157,-10.014,1.222
87.000866,0.157,-10.014,1.222
87.010561,0.157,-10.059,1.253
87.020256,0.157,-10.105,1.285
87.029951,0.157,-10.066,1.292
87.039646,0.157,-10.066,1.292
87.049341,0.118,-10.112,1.324
87.059036,0.118,-10.15,1.317
87.068731,0.118,-10.189,1.31
87.078426,0.118,-9.95,1.313
87.088121,0.078,-10.08,1.369
87.097816,0.078,-10.214,1.226
87.107511,0.078,-10.139,1.478
87.117208,0.039,-10.305,1.29
87.126905,0.039,-10.15,1.317
87.136602,0.078,-10.266,1.297
87.146299,0.078,-10.207,1.188
87.155996,0.118,-10.266,1.297
87.165693,0.118,-10.221,1.265
87.17539,0.157,-10.175,1.233
87.185087,0.118,-10.066,1.292
87.194784,0.157,-9.982,1.267
87.204481,0.118,-9.891,1.203
87.214178,0.078,-9.853,1.21
87.223875,0.039,-9.8,1.14
87.233572,0.078,-9.807,1.178
87.243269,0.039,-9.916,1.119
87.252992,0,-9.994,1.106
87.262715,0,-9.923,1.158
87.272438,-0.039,-9.859,1.249
87.282161,0,-9.923,1.158
87.291884,-0.039,-10.084,1.169
87.301607,0,-10.2,1.149
87.31133,-0.078,-10.225,1.065
87.321053,-0.039,-10.187,1.072
87.330776,-0.078,-10.103,1.047
87.340499,-0.078,-10.064,1.053
87.350222,-0.039,-10.032,1.099
87.359945,-0.039,-9.969,1.19
87.369668,-0.078,-10.053,1.215
87.379391,0,-10.021,1.26
87.389114,0,-10.059,1.253
87.398837,0,-10.144,1.278
87.40856,0,-10.225,1.065
87.418283,0,-10.053,1.215
87.428006,0,-10,1.144
87.437729,0,-10.005,0.944
87.447452,0.039,-10.075,0.892
87.457175,-0.039,-10.037,0.899
87.466898,-0.078,-10.019,1.022
87.476621,-0.118,-10.019,1.022
87.486344,-0.118,-10.071,1.092
87.496067,-0.157,-10.078,1.131
87.50579,-0.157,-10.039,1.138
87.515535,-0.196,-10.032,1.099
87.52528,-0.118,-10.032,1.099
87.535025,-0.118,-9.987,1.067
87.54477,-0.078,-10.025,1.06
87.554515,-0.078,-9.98,1.028
87.56426,-0.078,-9.941,1.035
87.574005,-0.039,-9.941,1.035
87.58375,-0.039,-9.98,1.028
87.593495,0,-10.025,1.06
87.60324,-0.039,-10.019,1.022
87.612985,-0.039,-10.025,1.06
87.62273,-0.039,-10.032,1.099
87.632475,0,-10.078,1.131
87.642213,0.039,-10.162,1.156
87.651951,0,-10.246,1.181
87.661689,0.039,-10.278,1.135
87.671427,0.039,-10.284,1.174
87.681165,0.078,-10.246,1.181
87.690903,0.039,-10.246,1.181
87.700641,0.039,-10.239,1.142
87.710379,0,-10.246,1.181
87.720117,0.039,-10.169,1.194
87.729855,0.039,-10.123,1.163
87.739593,0,-10.169,1.194
87.749331,0,-10.123,1.163
87.759069,0,-10.078,1.131
87.768807,0,-10.039,1.138
87.778561,0.039,-10.057,1.015
87.788315,0.039,-10.096,1.008
87.798069,0.039,-10.096,1.008
87.807823,0,-10.096,1.008
87.817577,-0.039,-10.05,0.976
87.827331,-0.039,-10.05,0.976
87.837085,-0.039,-10.082,0.931
87.846839,-0.039,-10.082,0.931
87.856593,-0.039,-10.075,0.892
87.866347,0,-10.075,0.892
87.876101,-0.039,-10.075,0.892
87.885855,-0.039,-10.114,0.885
87.895609,0,-10.075,0.892
87.905358,-0.039,-10.016,0.783
87.915107,-0.039,-10.016,0.783
87.924856,0,-10.023,0.822
87.934605,0,-10.016,0.783
87.944354,0,-9.978,0.79
87.954103,0,-9.939,0.797
87.963852,0.039,-9.9,0.804
87.973601,0,-9.907,0.842
87.98335,0.039,-9.9,0.804
87.993099,0.039,-9.894,0.765
88.002848,0.039,-9.939,0.797
88.012597,0.039,-9.932,0.758
88.022346,0.039,-9.964,0.713
88.032095,0,-9.919,0.681
88.041815,0.078,-9.912,0.642
88.051535,0.078,-9.989,0.629
88.061255,0.118,-10.041,0.699
88.070975,0.078,-10.08,0.692
88.080695,0.118,-10.08,0.692
88.090415,0.118,-10.003,0.706
88.100135,0.157,-10.003,0.706
88.109855,0.157,-10.041,0.699
88.119575,0.157,-10.035,0.66
88.129295,0.196,-10.041,0.699
88.139015,0.196,-10.035,0.66
88.148735,0.196,-10.041,0.699
88.158455,0.235,-10.08,0.692
88.168175,0.235,-10.119,0.685
88.177863,0.196,-10.189,0.633
88.187551,0.196,-10.119,0.685
88.197239,0.235,-10.119,0.685
88.206927,0.235,-10.119,0.685
88.216615,0.275,-10.08,0.692
88.226303,0.235,-10.041,0.699
88.235991,0.235,-10.041,0.699
88.245679,0.235,-10.087,0.731
88.255367,0.235,-10.048,0.738
88.265055,0.235,-10.08,0.692
88.274743,0.275,-10.073,0.654
88.284431,0.275,-10.035,0.66
88.294119,0.275,-10.035,0.66
88.303807,0.275,-10.041,0.699
88.313487,0.275,-10.073,0.654
88.323167,0.235,-10.073,0.654
88.332847,0.275,-10.073,0.654
88.342527,0.314,-10.073,0.654
88.352207,0.314,-10.028,0.622
88.361887,0.314,-10.035,0.66
88.371567,0.353,-10.028,0.622
88.381247,0.353,-10.028,0.622
88.390927,0.392,-10.06,0.576
88.400607,0.353,-10.066,0.615
88.410287,0.392,-10.035,0.66
88.419967,0.353,-10.035,0.66
88.429647,0.353,-10.073,0.654
88.439311,0.392,-10.073,0.654
88.448975,0.353,-10.112,0.647
88.458639,0.314,-10.073,0.654
88.468303,0.314,-10.028,0.622
88.477967,0.314,-10.028,0.622
88.487631,0.314,-10.021,0.583
88.497295,0.314,-10.06,0.576
88.506959,0.314,-10.105,0.608
88.516623,0.353,-10.098,0.569
88.526287,0.314,-10.105,0.608
88.535951,0.275,-10.073,0.654
88.545615,0.275,-10.112,0.647
88.555279,0.235,-10.112,0.647
88.564943,0.196,-10.112,0.647
88.574592,0.275,-10.112,0.647
88.584241,0.235,-10.112,0.647
88.59389,0.235,-10.073,0.654
88.603539,0.196,-10.08,0.692
88.613188,0.235,-10.087,0.731
88.622837,0.235,-10.08,0.692
88.632486,0.235,-10.08,0.692
88.642135,0.235,-10.119,0.685
88.651784,0.235,-10.119,0.685
88.661433,0.275,-10.112,0.647
88.671082,0.275,-10.08,0.692
88.680731,0.275,-10.003,0.706
88.69038,0.275,-9.996,0.667
88.700029,0.314,-9.95,0.635
88.709692,0.314,-9.996,0.667
88.719355,0.314,-9.982,0.59
88.729018,0.314,-9.989,0.629
88.738681,0.353,-9.982,0.59
88.748344,0.314,-10.053,0.538
88.758007,0.275,-10.091,0.531
88.76767,0.314,-10.066,0.615
88.777333,0.275,-10.066,0.615
88.786996,0.314,-10.073,0.654
88.796659,0.314,-10.035,0.66
88.806322,0.275,-10.041,0.699
88.815985,0.235,-10.003,0.706
88.825648,0.235,-10.003,0.706
88.835306,0.353,-10.035,0.66
88.844964,0.314,-10.048,0.738
88.854622,0.314,-10.139,0.801
88.86428,0.275,-10.139,0.801
88.873938,0.196,-10.146,0.84
88.883596,0.196,-10.178,0.794
88.893254,0.235,-10.216,0.788
88.902912,0.235,-10.178,0.794
88.91257,0.235,-10.139,0.801
88.922228,0.235,-10.1,0.808
88.931886,0.275,-10.153,0.879
88.941544,0.275,-10.139,0.801
88.951202,0.314,-10.184,0.833
88.96086,0.314,-10.1,0.808
88.97054,0.314,-10.016,0.783
88.98022,0.314,-9.939,0.797
88.9899,0.353,-9.894,0.765
88.99958,0.353,-9.855,0.772
89.00926,0.353,-9.88,0.688
89.01894,0.431,-9.989,0.629
89.02862,0.431,-10.182,0.594
89.0383,0.431,-10.189,0.633
89.04798,0.392,-10.189,0.633
89.05766,0.353,-10.182,0.594
89.06734,0.353,-10.228,0.626
89.07702,0.314,-10.216,0.788
89.0867,0.275,-10.198,0.91
89.096375,0.235,-10.18,1.033
89.10605,0.235,-10.205,0.949
89.115725,0.235,-10.25,0.981
89.1254,0.196,-10.314,0.89
89.135075,0.196,-10.353,0.883
89.14475,0.196,-10.314,0.89
89.154425,0.157,-10.275,0.897
89.1641,0.118,-10.237,0.904
89.173775,0.118,-10.191,0.872
89.18345,0.078,-10.159,0.917
89.193125,0.118,-10.107,0.847
89.2028,0.118,-10.107,0.847
89.212475,0.157,-10.107,0.847
89.22215,0.118,-10.132,0.763
89.231843,0.078,-10.21,0.749
89.241536,0.078,-10.196,0.672
89.251229,0.118,-10.15,0.64
89.260922,0.118,-10.105,0.608
89.270615,0.118,-10.053,0.538
89.280308,0.118,-9.982,0.59
89.290001,0.118,-9.905,0.604
89.299694,0.118,-9.898,0.565
89.309387,0.118,-9.898,0.565
89.31908,0.118,-9.969,0.513
89.328773,0.078,-9.962,0.474
89.338466,0.118,-9.955,0.435
89.348159,0.118,-9.955,0.435
89.357847,0.118,-9.948,0.397
89.367535,0.157,-9.935,0.32
89.377223,0.118,-9.896,0.326
89.386911,0.196,-9.903,0.365
89.396599,0.118,-9.826,0.379
89.406287,0.078,-9.787,0.385
89.415975,0.039,-9.794,0.424
89.425663,0.039,-9.794,0.424
89.435351,0.039,-9.832,0.417
89.445039,0.039,-9.91,0.404
89.454727,0.078,-9.948,0.397
89.464415,0.078,-9.994,0.429
89.474103,0.078,-9.955,0.435
89.483791,0.078,-10.11,0.408
89.493485,0.039,-10.173,0.317
89.503179,0.039,-10.212,0.31
89.512873,0.078,-10.187,0.395
89.522567,0.118,-10.2,0.472
89.532261,0.078,-10.137,0.563
89.541955,0.078,-10.105,0.608
89.551649,0.157,-10.123,0.485
89.561343,0.118,-10.175,0.556
89.571037,0.157,-10.182,0.594
89.580731,0.118,-10.298,0.574
89.590425,0.118,-10.266,0.62
89.600119,0.118,-10.266,0.62
89.609813,0.118,-10.169,0.517
89.619507,0.157,-10.091,0.531
89.629201,0.157,-9.955,0.435
89.638895,0.196,-9.826,0.379
89.648577,0.196,-9.612,0.297
89.658259,0.157,-9.419,0.331
89.667941,0.039,-9.321,0.229
89.677623,0,-9.38,0.338
89.687305,0.039,-9.394,0.415
89.696987,0.039,-9.464,0.363
89.706669,0.039,-9.58,0.342
89.716351,0.039,-9.787,0.385
89.726033,0,-10.032,0.422
89.735715,0,-9.891,0.526
89.745397,0,-9.66,0.567
89.755079,0,-9.428,0.608
89.764761,0.118,-9.203,0.688
89.774443,0.157,-9.203,0.688
89.784136,0.196,-9.262,0.797
89.793829,0.196,-9.482,0.917
89.803522,0.235,-10.082,0.931
89.813215,0.157,-9.839,1.133
89.822908,0.196,-10.039,1.138
89.832601,0.118,-10.13,1.201
89.842294,0.078,-10.228,1.303
89.851987,0.118,-10.453,1.224
89.86168,0.118,-10.414,1.231
89.871373,0,-10.396,1.353
89.881066,0,-10.3,1.49
89.890759,-0.039,-10.321,1.606
89.900452,-0.039,-10.489,1.656
89.910131,-0.078,-10.541,1.726
89.91981,-0.118,-10.664,1.744
89.929489,-0.196,-10.671,1.783
89.939168,-0.157,-10.607,1.874
89.948847,-0.118,-10.537,1.926
89.958526,-0.078,-10.459,1.94
89.968205,-0.039,-10.214,1.903
89.977884,-0.039,-9.993,1.783
89.987563,0.039,-9.871,1.765
89.997242,0.078,-9.787,1.74
90.006921,0.118,-9.741,1.708
90.0166,0.078,-9.773,1.662
90.026279,0.039,-9.78,1.701
90.035958,0.039,-9.825,1.733
90.045647,0.078,-9.825,1.733
90.055336,0.078,-9.884,1.842
90.065025,0.078,-9.916,1.797
90.074714,0.039,-9.962,1.828
90.084403,0.078,-10.007,1.86
90.094092,0.039,-10.053,1.892
90.103781,0.039,-10.098,1.924
90.11347,0,-10.112,2.001
90.123159,-0.078,-10.073,2.008
90.132848,-0.118,-10.118,2.04
90.142537,-0.078,-10.125,2.078
90.152226,-0.078,-10.048,2.092
90.161915,-0.078,-10.009,2.099
90.171603,-0.118,-10.016,2.137
90.181291,-0.118,-9.978,2.144
90.190979,-0.118,-9.971,2.106
90.200667,-0.118,-9.964,2.067
90.210355,-0.118,-9.925,2.074
90.220043,-0.157,-9.88,2.042
90.229731,-0.157,-9.887,2.081
90.239419,-0.157,-9.932,2.112
90.249107,-0.196,-9.971,2.106
90.258795,-0.157,-10.016,2.137
90.268483,-0.157,-10.016,2.137
90.278171,-0.157,-10.062,2.169
90.287859,-0.157,-10.062,2.169
90.297547,-0.157,-10.016,2.137
90.307259,-0.235,-10.03,2.215
90.316971,-0.196,-10.016,2.137
90.326683,-0.196,-10.009,2.099
90.336395,-0.157,-10.003,2.06
90.346107,-0.196,-9.964,2.067
90.355819,-0.157,-9.95,1.99
90.365531,-0.118,-9.859,1.926
90.375243,-0.118,-9.905,1.958
90.384955,-0.157,-9.943,1.951
90.394667,-0.118,-9.943,1.951
90.404379,-0.118,-9.912,1.996
90.414091,-0.078,-9.912,1.996
90.423803,-0.078,-9.957,2.028
90.433523,-0.039,-10.028,1.976
90.443243,-0.039,-10.021,1.937
90.452963,-0.078,-10.028,1.976
90.462683,0.039,-10.073,2.008
90.472403,0,-10.021,1.937
90.482123,-0.039,-9.937,1.912
90.491843,0,-9.968,1.867
90.501563,-0.039,-9.962,1.828
90.511283,-0.039,-10.007,1.86
90.521003,-0.039,-10,1.822
90.530723,-0.078,-9.993,1.783
90.540443,-0.078,-10.032,1.776
90.550163,-0.118,-10.064,1.731
90.559883,-0.118,-10.018,1.699
90.569613,-0.157,-10.018,1.699
90.579343,-0.196,-10.018,1.699
90.589073,-0.118,-10.012,1.66
90.598803,-0.157,-9.966,1.628
90.608533,-0.118,-9.921,1.597
90.618263,-0.118,-9.869,1.526
90.627993,-0.118,-9.83,1.533
90.637723,-0.078,-9.83,1.533
90.647453,-0.118,-9.791,1.54
90.657183,-0.118,-9.746,1.508
90.666913,-0.078,-9.778,1.462
90.676643,-0.039,-9.778,1.462
90.686373,-0.039,-9.771,1.424
90.696103,-0.078,-9.809,1.417
90.705817,0,-9.809,1.417
90.715531,-0.039,-9.887,1.403
90.725245,0,-9.873,1.326
90.734959,-0.039,-9.912,1.319
90.744673,0,-9.912,1.319
90.754387,0,-9.919,1.358
90.764101,0,-9.925,1.397
90.773815,0,-9.887,1.403
90.783529,0.039,-9.848,1.41
90.793243,0,-9.848,1.41
90.802957,0.039,-9.855,1.449
90.812671,0.039,-9.907,1.519
90.822385,0.078,-9.946,1.512
90.832099,0.118,-9.9,1.481
90.841828,0.118,-9.932,1.435
90.851557,0.196,-9.984,1.506
90.861286,0.157,-10.03,1.537
90.871015,0.157,-9.998,1.583
90.880744,0.118,-10.005,1.622
90.890473,0.118,-10.005,1.622
90.900202,0.118,-10.012,1.66
90.909931,0.118,-10.089,1.647
90.91966,0.118,-10.05,1.653
90.929389,0.118,-10.057,1.692
90.939118,0.118,-10.018,1.699
90.948847,0.078,-10.064,1.731
90.958576,0.078,-10.071,1.769
90.968296,0.078,-10.078,1.808
90.978016,0.039,-10.071,1.769
90.987736,0.078,-10.064,1.731
90.997456,0.078,-10.057,1.692
91.007176,0.078,-9.98,1.706
91.016896,0,-10.025,1.737
91.026616,0,-10.064,1.731
91.036336,0,-10.064,1.731
91.046056,0,-10.103,1.724
91.055776,0.039,-10.018,1.699
91.065496,0,-10.018,1.699
91.075216,0.039,-10.012,1.66
91.084936,0.039,-10.012,1.66
91.094656,0.039,-9.928,1.635
91.104376,0.078,-9.928,1.635
91.114099,0.118,-9.959,1.59
91.123822,0.078,-9.882,1.603
91.133545,0.078,-9.882,1.603
91.143268,0.078,-9.941,1.712
91.152991,0.078,-9.934,1.674
91.162714,0.039,-9.953,1.551
91.172437,0.039,-10.037,1.576
91.18216,0.039,-10.043,1.615
91.191883,0.039,-10.082,1.608
91.201606,0.078,-10.082,1.608
91.211329,0.039,-10.121,1.601
91.221052,0.078,-10.121,1.601
91.230775,0.157,-10.114,1.563
91.240476,0.235,-10.107,1.524
91.250177,0.196,-10.134,1.678
91.259878,0.196,-10.05,1.653
91.269579,0.235,-10.043,1.615
91.27928,0.275,-9.959,1.59
91.288981,0.235,-9.946,1.512
91.298682,0.196,-9.907,1.519
91.308383,0.196,-9.946,1.512
91.318084,0.235,-9.953,1.551
91.327785,0.196,-10.023,1.499
91.337486,0.196,-9.984,1.506
91.347187,0.196,-10.016,1.46
91.356888,0.196,-10.016,1.46
91.366589,0.157,-9.971,1.428
91.376278,0.196,-9.964,1.39
91.385967,0.157,-9.964,1.39
91.395656,0.157,-10.009,1.422
91.405345,0.157,-9.971,1.428
91.415034,0.196,-10.003,1.383
91.424723,0.157,-9.957,1.351
91.434412,0.196,-9.919,1.358
91.444101,0.196,-9.912,1.319
91.45379,0.196,-9.919,1.358
91.463479,0.196,-9.944,1.274
91.473168,0.196,-9.982,1.267
91.482857,0.157,-9.989,1.306
91.492546,0.157,-9.982,1.267
91.502235,0.157,-9.898,1.242
91.511932,0.196,-9.846,1.172
91.521629,0.196,-9.853,1.21
91.531326,0.235,-9.891,1.203
91.541023,0.235,-9.923,1.158
91.55072,0.196,-9.923,1.158
91.560417,0.235,-9.93,1.197
91.570114,0.235,-9.975,1.228
91.579811,0.235,-9.969,1.19
91.589508,0.235,-9.975,1.228
91.599205,0.235,-9.975,1.228
91.608902,0.235,-9.982,1.267
91.618599,0.275,-10.021,1.26
91.628296,0.275,-10.021,1.26
91.637982,0.275,-9.982,1.267
91.647668,0.275,-9.982,1.267
91.657354,0.235,-9.982,1.267
91.66704,0.235,-9.93,1.197
91.676726,0.235,-9.846,1.172
91.686412,0.235,-9.846,1.172
91.696098,0.235,-9.93,1.197
91.705784,0.235,-9.975,1.228
91.71547,0.235,-10.014,1.222
91.725156,0.235,-10.014,1.222
91.734842,0.235,-10.059,1.253
91.744528,0.235,-10.028,1.299
91.754214,0.275,-10.021,1.26
91.7639,0.275,-10.021,1.26
91.773579,0.235,-10.059,1.253
91.783258,0.235,-10.073,1.331
91.792937,0.235,-10.112,1.324
91.802616,0.275,-10.112,1.324
91.812295,0.275,-10.112,1.324
91.821974,0.275,-10.066,1.292
91.831653,0.235,-10.066,1.292
91.841332,0.275,-10.066,1.292
91.851011,0.235,-10.059,1.253
91.86069,0.235,-10.066,1.292
91.870369,0.235,-10.021,1.26
91.880048,0.235,-10.073,1.331
91.889727,0.235,-9.989,1.306
91.899406,0.235,-10.028,1.299
91.909079,0.196,-10.014,1.222
91.918752,0.196,-10.021,1.26
91.928425,0.235,-10.021,1.26
91.938098,0.275,-9.989,1.306
91.947771,0.235,-10.028,1.299
91.957444,0.275,-9.982,1.267
91.967117,0.235,-9.989,1.306
91.97679,0.275,-10.021,1.26
91.986463,0.275,-10.021,1.26
91.996136,0.314,-10.059,1.253
92.005809,0.314,-10.059,1.253
92.015482,0.275,-10.059,1.253
92.025155,0.275,-10.014,1.222
92.034828,0.275,-10.059,1.253
92.044501,0.314,-9.982,1.267
92.054174,0.314,-10.053,1.215
92.063863,0.275,-10.046,1.176
92.073552,0.275,-10.007,1.183
92.083241,0.275,-10.021,1.26
92.09293,0.196,-9.982,1.267
92.102619,0.196,-9.937,1.235
92.112308,0.157,-9.853,1.21
92.121997,0.118,-9.891,1.203
92.131686,0.118,-9.859,1.249
92.141375,0.118,-9.937,1.235
92.151064,0.118,-9.982,1.267
92.160753,0.157,-10.021,1.26
92.170442,0.157,-10.059,1.253
92.180131,0.196,-10.059,1.253
92.189812,0.196,-10.091,1.208
92.199493,0.235,-10.053,1.215
92.209174,0.235,-10.091,1.208
92.218855,0.314,-10.091,1.208
92.228536,0.314,-10.053,1.215
92.238217,0.314,-10.046,1.176
92.247898,0.353,-10.046,1.176
92.257579,0.392,-10.078,1.131
92.26726,0.431,-10.078,1.131
92.276941,0.431,-10.032,1.099
92.286622,0.392,-10.039,1.138
92.296303,0.392,-10.032,1.099
92.305984,0.431,-10,1.144
92.315665,0.431,-10,1.144
92.325335,0.471,-10,1.144
92.335005,0.471,-10,1.144
92.344675,0.392,-10.007,1.183
92.354345,0.392,-10.014,1.222
92.364015,0.392,-10.046,1.176
92.373685,0.392,-10.059,1.253
92.383355,0.392,-10.059,1.253
92.393025,0.392,-10.059,1.253
92.402695,0.392,-10.059,1.253
92.412365,0.392,-10.059,1.253
92.422035,0.392,-10.021,1.26
92.431705,0.353,-9.975,1.228
92.441375,0.353,-9.975,1.228
92.451045,0.392,-9.975,1.228
92.460735,0.392,-10.021,1.26
92.470425,0.471,-10.059,1.253
92.480115,0.51,-10.13,1.201
92.489805,0.51,-10.137,1.24
92.499495,0.549,-10.13,1.201
92.509185,0.549,-10.13,1.201
92.518875,0.549,-10.046,1.176
92.528565,0.549,-10,1.144
92.538255,0.549,-9.955,1.113
92.547945,0.588,-9.923,1.158
92.557635,0.588,-9.969,1.19
92.567325,0.588,-9.969,1.19
92.577015,0.588,-9.969,1.19
92.586702,0.667,-9.994,1.106
92.596389,0.667,-10,1.144
92.606076,0.628,-9.962,1.151
92.615763,0.588,-10,1.144
92.62545,0.628,-10,1.144
92.635137,0.628,-10,1.144
92.644824,0.667,-10,1.144
92.654511,0.628,-10.007,1.183
92.664198,0.628,-9.969,1.19
92.673885,0.628,-9.937,1.235
92.683572,0.628,-9.93,1.197
92.693259,0.588,-9.975,1.228
92.702946,0.628,-9.975,1.228
92.712633,0.628,-9.937,1.235
92.722317,0.628,-10.014,1.222
92.732001,0.667,-10.066,1.292
92.741685,0.667,-10.059,1.253
92.751369,0.628,-10.059,1.253
92.761053,0.628,-10.059,1.253
92.770737,0.628,-10.053,1.215
92.780421,0.628,-10.021,1.26
92.790105,0.628,-10.066,1.292
92.799789,0.628,-10.028,1.299
92.809473,0.667,-10.066,1.292
92.819157,0.667,-10.028,1.299
92.828841,0.628,-10.028,1.299
92.838525,0.588,-10.028,1.299
92.848209,0.588,-9.989,1.306
92.85788,0.549,-9.982,1.267
92.867551,0.588,-9.982,1.267
92.877222,0.588,-9.989,1.306
92.886893,0.628,-9.989,1.306
92.896564,0.667,-10.028,1.299
92.906235,0.628,-10.066,1.292
92.915906,0.628,-10.066,1.292
92.925577,0.628,-10.073,1.331
92.935248,0.588,-10.034,1.338
92.944919,0.549,-10.066,1.292
92.95459,0.549,-10.066,1.292
92.964261,0.588,-10.059,1.253
92.973932,0.51,-10.021,1.26
92.983603,0.51,-10.021,1.26
92.993284,0.471,-9.982,1.267
93.002965,0.471,-10.021,1.26
93.012646,0.51,-9.975,1.228
93.022327,0.51,-9.898,1.242
93.032008,0.51,-9.898,1.242
93.041689,0.471,-9.905,1.281
93.05137,0.471,-9.944,1.274
93.061051,0.471,-9.989,1.306
93.070732,0.471,-9.982,1.267
93.080413,0.471,-10.014,1.222
93.090094,0.431,-10.059,1.253
93.099775,0.431,-10.059,1.253
93.109456,0.431,-10.098,1.247
93.119144,0.471,-10.021,1.26
93.128832,0.353,-10.014,1.222
93.13852,0.353,-9.982,1.267
93.148208,0.353,-9.937,1.235
93.157896,0.314,-9.944,1.274
93.167584,0.353,-9.975,1.228
93.177272,0.353,-9.975,1.228
93.18696,0.314,-9.937,1.235
93.196648,0.314,-9.891,1.203
93.206336,0.314,-9.846,1.172
93.216024,0.353,-9.891,1.203
93.225712,0.353,-9.937,1.235
93.2354,0.392,-9.969,1.19
93.245088,0.353,-9.975,1.228
93.254774,0.431,-10.021,1.26
93.26446,0.471,-10.053,1.215
93.274146,0.471,-10.098,1.247
93.283832,0.471,-10.137,1.24
93.293518,0.431,-10.091,1.208
93.303204,0.431,-10.053,1.215
93.31289,0.431,-10.007,1.183
93.322576,0.431,-10.014,1.222
93.332262,0.431,-9.975,1.228
93.341948,0.431,-9.937,1.235
93.351634,0.431,-9.937,1.235
93.36132,0.431,-9.937,1.235
93.371006,0.392,-9.937,1.235
93.380692,0.431,-9.989,1.306
93.390401,0.392,-9.989,1.306
93.40011,0.392,-10.028,1.299
93.409819,0.431,-10.021,1.26
93.419528,0.431,-9.982,1.267
93.429237,0.392,-9.982,1.267
93.438946,0.431,-10.021,1.26
93.448655,0.392,-10.021,1.26
93.458364,0.431,-10.059,1.253
93.468073,0.392,-10.021,1.26
93.477782,0.353,-9.982,1.267
93.487491,0.353,-9.975,1.228
93.4972,0.353,-9.975,1.228
93.506909,0.353,-9.975,1.228
93.516645,0.353,-9.989,1.306
93.526381,0.353,-9.989,1.306
93.536117,0.314,-9.982,1.267
93.545853,0.353,-10.021,1.26
93.555589,0.353,-10.028,1.299
93.565325,0.353,-10.066,1.292
93.575061,0.314,-10.073,1.331
93.584797,0.353,-10.073,1.331
93.594533,0.353,-10.066,1.292
93.604269,0.353,-10.034,1.338
93.614005,0.353,-9.996,1.344
93.623741,0.353,-9.989,1.306
93.633477,0.314,-9.95,1.313
93.643213,0.314,-9.989,1.306
93.652954,0.275,-9.996,1.344
93.662695,0.314,-10.034,1.338
93.672436,0.314,-9.996,1.344
93.682177,0.314,-10.073,1.331
93.691918,0.314,-10.073,1.331
93.701659,0.353,-10.073,1.331
93.7114,0.353,-10.073,1.331
93.721141,0.314,-10.034,1.338
93.730882,0.314,-10.08,1.369
93.740623,0.314,-10.08,1.369
93.750364,0.314,-10.08,1.369
93.760105,0.314,-10.073,1.331
93.769846,0.314,-10.034,1.338
93.779587,0.353,-9.989,1.306
93.789309,0.392,-9.996,1.344
93.799031,0.392,-9.996,1.344
93.808753,0.353,-10.034,1.338
93.818475,0.353,-10.034,1.338
93.828197,0.353,-10.034,1.338
93.837919,0.392,-9.996,1.344
93.847641,0.353,-9.996,1.344
93.857363,0.392,-10.003,1.383
93.867085,0.392,-9.957,1.351
93.876807,0.392,-9.964,1.39
93.886529,0.392,-9.996,1.344
93.896251,0.392,-9.957,1.351
93.905973,0.392,-9.957,1.351
93.915695,0.431,-9.964,1.39
93.925415,0.392,-10.003,1.383
93.935135,0.392,-9.957,1.351
93.944855,0.353,-9.989,1.306
93.954575,0.392,-9.996,1.344
93.964295,0.353,-10.003,1.383
93.974015,0.392,-10.003,1.383
93.983735,0.353,-9.971,1.428
93.993455,0.314,-10.003,1.383
94.003175,0.353,-10.048,1.415
94.012895,0.353,-10.041,1.376
94.022615,0.314,-10.125,1.401
94.032335,0.275,-10.073,1.331
94.042055,0.314,-10.119,1.363
94.051754,0.353,-10.196,1.349
94.061453,0.314,-10.157,1.356
94.071152,0.275,-10.08,1.369
94.080851,0.235,-10.073,1.331
94.09055,0.235,-10.08,1.369
94.100249,0.235,-10.034,1.338
94.109948,0.196,-10.034,1.338
94.119647,0.196,-9.989,1.306
94.129346,0.157,-9.982,1.267
94.139045,0.196,-9.937,1.235
94.148744,0.157,-9.975,1.228
94.158443,0.196,-10.014,1.222
94.168142,0.196,-10.014,1.222
94.177841,0.235,-10.021,1.26
94.187542,0.196,-10.021,1.26
94.197243,0.157,-9.996,1.344
94.206944,0.196,-9.989,1.306
94.216645,0.196,-9.989,1.306
94.226346,0.157,-9.982,1.267
94.236047,0.157,-9.957,1.351
94.245748,0.157,-9.957,1.351
94.255449,0.196,-9.957,1.351
94.26515,0.235,-9.989,1.306
94.274851,0.196,-9.989,1.306
94.284552,0.235,-9.957,1.351
94.294253,0.235,-9.996,1.344
94.303954,0.275,-9.996,1.344
94.313677,0.353,-9.996,1.344
94.3234,0.314,-9.95,1.313
94.333123,0.314,-10.034,1.338
94.342846,0.353,-10.003,1.383
94.352569,0.353,-10.009,1.422
94.362292,0.353,-10.041,1.376
94.372015,0.353,-10.003,1.383
94.381738,0.353,-9.957,1.351
94.391461,0.353,-9.964,1.39
94.401184,0.353,-10.003,1.383
94.410907,0.392,-10.034,1.338
94.42063,0.392,-10.041,1.376
94.430353,0.392,-10.08,1.369
94.440073,0.392,-10.087,1.408
94.449793,0.392,-10.08,1.369
94.459513,0.431,-10.009,1.422
94.469233,0.431,-10.003,1.383
94.478953,0.392,-9.996,1.344
94.488673,0.353,-9.989,1.306
94.498393,0.392,-9.957,1.351
94.508113,0.314,-9.957,1.351
94.517833,0.314,-9.989,1.306
94.527553,0.353,-9.95,1.313
94.537273,0.353,-9.989,1.306
94.546993,0.353,-9.989,1.306
94.556713,0.353,-9.95,1.313
94.566433,0.314,-9.957,1.351
94.576171,0.314,-9.971,1.428
94.585909,0.314,-10.003,1.383
94.595647,0.353,-9.957,1.351
94.605385,0.353,-9.996,1.344
94.615123,0.392,-10.041,1.376
94.624861,0.431,-10.003,1.383
94.634599,0.353,-9.996,1.344
94.644337,0.353,-9.996,1.344
94.654075,0.353,-10.003,1.383
94.663813,0.353,-9.996,1.344
94.673551,0.353,-10.034,1.338
94.683289,0.353,-9.964,1.39
94.693027,0.314,-10.009,1.422
94.702761,0.314,-10.041,1.376
94.712495,0.275,-10.041,1.376
94.722229,0.275,-10.003,1.383
94.731963,0.235,-10.003,1.383
94.741697,0.235,-9.964,1.39
94.751431,0.235,-10.003,1.383
94.761165,0.235,-9.971,1.428
94.770899,0.196,-9.932,1.435
94.780633,0.196,-9.932,1.435
94.790367,0.196,-9.932,1.435
94.800101,0.196,-9.894,1.442
94.809835,0.196,-9.964,1.39
94.819569,0.235,-9.978,1.467
94.829303,0.235,-10.009,1.422
94.83902,0.275,-10.003,1.383
94.848737,0.314,-10.009,1.422
94.858454,0.392,-9.957,1.351
94.868171,0.392,-9.996,1.344
94.877888,0.314,-9.925,1.397
94.887605,0.314,-9.925,1.397
94.897322,0.353,-9.887,1.403
94.907039,0.353,-9.887,1.403
94.916756,0.353,-9.894,1.442
94.926473,0.353,-9.939,1.474
94.93619,0.353,-9.946,1.512
94.945907,0.353,-9.932,1.435
94.955624,0.353,-9.932,1.435
94.965341,0.353,-9.932,1.435
94.975046,0.353,-10.016,1.46
94.984751,0.392,-10.023,1.499
94.994456,0.353,-10.023,1.499
95.004161,0.392,-10.023,1.499
95.013866,0.392,-10.023,1.499
95.023571,0.392,-9.984,1.506
95.033276,0.392,-10.043,1.615
95.042981,0.431,-9.991,1.544
95.052686,0.392,-9.991,1.544
95.062391,0.353,-9.991,1.544
95.072096,0.353,-10.03,1.537
95.081801,0.314,-9.991,1.544
95.091506,0.314,-10.03,1.537
95.101211,0.314,-10.069,1.531
95.110927,0.275,-10.089,1.647
95.120643,0.314,-10.082,1.608
95.130359,0.314,-10.114,1.563
95.140075,0.314,-10.107,1.524
95.149791,0.314,-10.069,1.531
95.159507,0.314,-10.069,1.531
95.169223,0.275,-10.03,1.537
95.178939,0.275,-9.991,1.544
95.188655,0.275,-9.953,1.551
95.198371,0.275,-9.953,1.551
95.208087,0.235,-9.984,1.506
95.217803,0.275,-10.03,1.537
95.227519,0.314,-10.03,1.537
95.237226,0.353,-10.043,1.615
95.246933,0.353,-10.043,1.615
95.25664,0.392,-10.037,1.576
95.266347,0.314,-10.114,1.563
95.276054,0.275,-10.062,1.492
95.285761,0.275,-10.062,1.492
95.295468,0.235,-10.062,1.492
95.305175,0.275,-10.055,1.453
95.314882,0.275,-10.016,1.46
95.324589,0.314,-10.023,1.499
95.334296,0.275,-9.984,1.506
95.344003,0.275,-9.984,1.506
95.35371,0.275,-9.984,1.506
95.363417,0.275,-9.946,1.512
95.373109,0.275,-9.959,1.59
95.382801,0.275,-9.907,1.519
95.392493,0.314,-9.953,1.551
95.402185,0.353,-9.946,1.512
95.411877,0.314,-9.939,1.474
95.421569,0.275,-9.939,1.474
95.431261,0.275,-9.894,1.442
95.440953,0.235,-9.894,1.442
95.450645,0.196,-9.932,1.435
95.460337,0.196,-9.932,1.435
95.470029,0.235,-9.932,1.435
95.479721,0.196,-9.894,1.442
95.489413,0.235,-9.984,1.506
95.499105,0.275,-9.984,1.506
95.508792,0.235,-10.023,1.499
95.518479,0.275,-9.991,1.544
95.528166,0.275,-9.984,1.506
95.537853,0.275,-9.907,1.519
95.54754,0.275,-9.939,1.474
95.557227,0.275,-9.978,1.467
95.566914,0.275,-10.062,1.492
95.576601,0.314,-10.062,1.492
95.586288,0.314,-9.978,1.467
95.595975,0.275,-9.984,1.506
95.605662,0.235,-10.016,1.46
95.615349,0.275,-10.016,1.46
95.625036,0.314,-10.016,1.46
95.634723,0.314,-9.978,1.467
95.64441,0.314,-9.978,1.467
95.654112,0.275,-9.957,1.351
95.663814,0.275,-9.894,1.442
95.673516,0.314,-9.9,1.481
95.683218,0.314,-9.946,1.512
95.69292,0.275,-9.984,1.506
95.702622,0.314,-10.023,1.499
95.712324,0.314,-9.991,1.544
95.722026,0.314,-10.03,1.537
95.731728,0.314,-9.984,1.506
95.74143,0.314,-10.023,1.499
95.751132,0.353,-9.971,1.428
95.760834,0.314,-9.978,1.467
95.770536,0.353,-9.939,1.474
95.780227,0.353,-9.953,1.551
95.789918,0.314,-9.946,1.512
95.799609,0.314,-9.984,1.506
95.8093,0.275,-9.939,1.474
95.818991,0.275,-9.953,1.551
95.828682,0.275,-9.953,1.551
95.838373,0.314,-9.953,1.551
95.848064,0.314,-9.991,1.544
95.857755,0.275,-9.984,1.506
95.867446,0.314,-9.984,1.506
95.877137,0.314,-9.984,1.506
95.886828,0.314,-9.991,1.544
95.896519,0.314,-9.953,1.551
95.90621,0.314,-9.946,1.512
95.915911,0.353,-9.978,1.467
95.925612,0.353,-9.946,1.512
95.935313,0.353,-9.953,1.551
95.945014,0.353,-9.946,1.512
95.954715,0.353,-9.914,1.558
95.964416,0.353,-9.914,1.558
95.974117,0.392,-9.953,1.551
95.983818,0.353,-9.953,1.551
95.993519,0.392,-10.037,1.576
96.00322,0.392,-10.005,1.622
96.012921,0.392,-9.998,1.583
96.022622,0.431,-10.037,1.576
96.032323,0.431,-10.009,1.422
96.042008,0.431,-10.03,1.537
96.051693,0.471,-9.998,1.583
96.061378,0.471,-10.012,1.66
96.071063,0.51,-10.005,1.622
96.080748,0.51,-10.005,1.622
96.090433,0.51,-10.043,1.615
96.100118,0.549,-10.043,1.615
96.109803,0.549,-9.998,1.583
96.119488,0.51,-10.037,1.576
96.129173,0.549,-10.005,1.622
96.138858,0.51,-10.005,1.622
96.148543,0.471,-10.005,1.622
96.158228,0.471,-9.966,1.628
96.167913,0.471,-9.959,1.59
96.177612,0.471,-9.953,1.551
96.187311,0.431,-9.921,1.597
96.19701,0.471,-9.959,1.59
96.206709,0.431,-9.953,1.551
96.216408,0.471,-9.959,1.59
96.226107,0.471,-9.998,1.583
96.235806,0.431,-9.953,1.551
96.245505,0.431,-9.953,1.551
96.255204,0.392,-9.907,1.519
96.264903,0.431,-9.953,1.551
96.274602,0.431,-9.953,1.551
96.284301,0.431,-9.953,1.551
96.294,0.431,-9.953,1.551
96.303693,0.471,-9.953,1.551
96.313386,0.471,-9.991,1.544
96.323079,0.392,-9.984,1.506
96.332772,0.392,-9.914,1.558
96.342465,0.392,-9.953,1.551
96.352158,0.353,-9.907,1.519
96.361851,0.353,-9.914,1.558
96.371544,0.353,-9.953,1.551
96.381237,0.353,-9.991,1.544
96.39093,0.353,-9.984,1.506
96.400623,0.353,-9.984,1.506
96.410316,0.353,-10.062,1.492
96.420009,0.353,-10.023,1.499
96.429702,0.353,-10.03,1.537
96.439378,0.353,-10.055,1.453
96.449054,0.353,-10.016,1.46
96.45873,0.275,-9.971,1.428
96.468406,0.353,-9.964,1.39
96.478082,0.314,-9.932,1.435
96.487758,0.314,-9.939,1.474
96.497434,0.314,-9.907,1.519
96.50711,0.314,-9.869,1.526
96.516786,0.353,-9.869,1.526
96.526462,0.314,-9.914,1.558
96.536138,0.314,-9.953,1.551
96.545814,0.314,-9.991,1.544
96.55549,0.275,-9.991,1.544
96.565166,0.314,-9.991,1.544
96.574845,0.275,-9.959,1.59
96.584524,0.275,-9.959,1.59
96.594203,0.275,-9.959,1.59
96.603882,0.275,-9.959,1.59
96.613561,0.275,-9.959,1.59
96.62324,0.314,-9.959,1.59
96.632919,0.314,-9.966,1.628
96.642598,0.275,-9.973,1.667
96.652277,0.314,-10.005,1.622
96.661956,0.353,-10.005,1.622
96.671635,0.353,-10.012,1.66
96.681314,0.431,-10.043,1.615
96.690993,0.431,-10.005,1.622
96.70065,0.431,-9.991,1.544
96.710307,0.431,-9.998,1.583
96.719964,0.431,-10.005,1.622
96.729621,0.392,-9.998,1.583
96.739278,0.431,-9.998,1.583
96.748935,0.353,-9.998,1.583
96.758592,0.392,-9.928,1.635
96.768249,0.392,-9.966,1.628
96.777906,0.392,-10.043,1.615
96.787563,0.353,-10.043,1.615
96.79722,0.353,-10.037,1.576
96.806877,0.353,-10.037,1.576
96.816534,0.353,-9.998,1.583
96.826191,0.314,-9.959,1.59
96.835849,0.353,-9.998,1.583
96.845507,0.353,-9.946,1.512
96.855165,0.353,-9.946,1.512
96.864823,0.314,-9.907,1.519
96.874481,0.314,-9.914,1.558
96.884139,0.353,-9.875,1.565
96.893797,0.314,-9.869,1.526
96.903455,0.275,-9.869,1.526
96.913113,0.275,-9.875,1.565
96.922771,0.275,-9.921,1.597
96.932429,0.314,-9.914,1.558
96.942087,0.314,-9.959,1.59
96.951745,0.314,-9.966,1.628
96.961429,0.314,-10.037,1.576
96.971113,0.353,-10.037,1.576
96.980797,0.392,-10.037,1.576
96.990481,0.353,-9.998,1.583
97.000165,0.353,-9.991,1.544
97.009849,0.353,-10.037,1.576
97.019533,0.314,-9.998,1.583
97.029217,0.314,-9.953,1.551
97.038901,0.314,-9.998,1.583
97.048585,0.314,-9.991,1.544
97.058269,0.353,-9.953,1.551
97.067953,0.353,-9.959,1.59
97.077637,0.314,-9.921,1.597
97.087325,0.353,-9.914,1.558
97.097013,0.353,-9.875,1.565
97.106701,0.353,-9.869,1.526
97.116389,0.314,-9.921,1.597
97.126077,0.275,-9.928,1.635
97.135765,0.314,-9.928,1.635
97.145453,0.314,-9.959,1.59
97.155141,0.353,-9.966,1.628
97.164829,0.353,-9.966,1.628
97.174517,0.353,-9.959,1.59
97.184205,0.353,-9.966,1.628
97.193893,0.353,-9.966,1.628
97.203581,0.353,-9.882,1.603
97.213269,0.353,-9.882,1.603
97.222941,0.314,-9.85,1.649
97.232613,0.392,-9.896,1.681
97.242285,0.431,-9.882,1.603
97.251957,0.431,-9.889,1.642
97.261629,0.431,-9.882,1.603
97.271301,0.471,-9.889,1.642
97.280973,0.471,-9.882,1.603
97.290645,0.471,-9.928,1.635
97.300317,0.431,-9.928,1.635
97.309989,0.471,-10.012,1.66
97.319661,0.471,-10.012,1.66
97.329333,0.431,-10.057,1.692
97.339005,0.431,-10.057,1.692
97.348677,0.471,-10.025,1.737
97.358366,0.471,-9.973,1.667
97.368055,0.431,-9.921,1.597
97.377744,0.471,-9.966,1.628
97.387433,0.471,-9.987,1.744
97.397122,0.471,-9.98,1.706
97.406811,0.431,-9.98,1.706
97.4165,0.431,-9.941,1.712
97.426189,0.392,-9.941,1.712
97.435878,0.431,-10.018,1.699
97.445567,0.431,-10.025,1.737
97.455256,0.431,-10.018,1.699
97.464945,0.392,-10.018,1.699
97.474634,0.392,-9.98,1.706
97.484343,0.431,-9.987,1.744
97.494052,0.353,-9.987,1.744
97.503761,0.392,-9.987,1.744
97.51347,0.353,-9.987,1.744
97.523179,0.353,-9.98,1.706
97.532888,0.392,-9.941,1.712
97.542597,0.353,-9.941,1.712
97.552306,0.392,-9.903,1.719
97.562015,0.353,-9.941,1.712
97.571724,0.353,-9.941,1.712
97.581433,0.353,-9.941,1.712
97.591142,0.392,-9.973,1.667
97.600851,0.392,-9.98,1.706
97.61056,0.353,-9.941,1.712
97.620263,0.314,-10.005,1.622
97.629966,0.314,-9.966,1.628
97.639669,0.353,-9.973,1.667
97.649372,0.392,-9.973,1.667
97.659075,0.392,-9.934,1.674
97.668778,0.392,-9.896,1.681
97.678481,0.353,-9.857,1.687
97.688184,0.353,-9.889,1.642
97.697887,0.353,-9.928,1.635
97.70759,0.353,-9.889,1.642
97.717293,0.353,-9.941,1.712
97.726996,0.353,-9.934,1.674
97.736699,0.314,-9.973,1.667
97.746402,0.275,-9.98,1.706
97.756088,0.275,-9.987,1.744
97.765774,0.314,-9.973,1.667
97.77546,0.275,-9.973,1.667
97.785146,0.275,-9.966,1.628
97.794832,0.275,-9.98,1.706
97.804518,0.235,-9.934,1.674
97.814204,0.275,-9.903,1.719
97.82389,0.275,-9.889,1.642
97.833576,0.314,-9.934,1.674
97.843262,0.314,-9.889,1.642
97.852948,0.314,-9.934,1.674
97.862634,0.353,-9.934,1.674
97.87232,0.353,-9.934,1.674
97.882006,0.353,-9.973,1.667
97.891683,0.353,-9.934,1.674
97.90136,0.392,-9.98,1.706
97.911037,0.392,-10.018,1.699
97.920714,0.392,-10.012,1.66
97.930391,0.392,-9.973,1.667
97.940068,0.353,-9.973,1.667
97.949745,0.392,-9.98,1.706
97.959422,0.353,-9.973,1.667
97.969099,0.353,-9.966,1.628
97.978776,0.353,-9.934,1.674
97.988453,0.314,-9.941,1.712
97.99813,0.314,-9.941,1.712
98.007807,0.314,-9.941,1.712
98.017484,0.353,-9.973,1.667
98.027164,0.314,-10.057,1.692
98.036844,0.275,-10.039,1.815
98.046524,0.314,-9.993,1.783
98.056204,0.314,-9.987,1.744
98.065884,0.353,-9.987,1.744
98.075564,0.353,-9.98,1.706
98.085244,0.353,-9.973,1.667
98.094924,0.314,-9.973,1.667
98.104604,0.314,-9.966,1.628
98.114284,0.314,-9.928,1.635
98.123964,0.314,-9.896,1.681
98.133644,0.314,-9.966,1.628
98.143324,0.314,-9.966,1.628
98.153004,0.314,-9.928,1.635
98.162686,0.314,-9.889,1.642
98.172368,0.314,-9.966,1.628
98.18205,0.314,-9.991,1.544
98.191732,0.392,-10.075,1.569
98.201414,0.353,-10.075,1.569
98.211096,0.314,-10.075,1.569
98.220778,0.353,-10.03,1.537
98.23046,0.353,-10.03,1.537
98.240142,0.353,-10.075,1.569
98.249824,0.353,-10.03,1.537
98.259506,0.353,-9.991,1.544
98.269188,0.353,-9.939,1.474
98.27887,0.314,-9.946,1.512
98.28854,0.314,-9.946,1.512
98.29821,0.314,-9.966,1.628
98.30788,0.314,-9.953,1.551
98.31755,0.314,-9.946,1.512
98.32722,0.314,-9.946,1.512
98.33689,0.314,-9.939,1.474
98.34656,0.314,-9.932,1.435
98.35623,0.314,-9.894,1.442
98.3659,0.275,-9.887,1.403
98.37557,0.314,-9.841,1.372
98.38524,0.314,-9.841,1.372
98.39491,0.314,-9.88,1.365
98.40458,0.314,-9.873,1.326
98.41425,0.353,-9.873,1.326
98.423946,0.353,-9.919,1.358
98.433642,0.314,-9.925,1.397
98.443338,0.314,-9.925,1.397
98.453034,0.314,-9.964,1.39
98.46273,0.314,-10.003,1.383
98.472426,0.353,-9.925,1.397
98.482122,0.314,-9.957,1.351
98.491818,0.314,-9.964,1.39
98.501514,0.314,-9.971,1.428
98.51121,0.314,-9.978,1.467
98.520906,0.314,-10.016,1.46
98.530602,0.353,-9.978,1.467
98.540298,0.353,-9.978,1.467
98.550002,0.353,-9.978,1.467
98.559706,0.353,-9.939,1.474
98.56941,0.353,-9.953,1.551
98.579114,0.431,-9.966,1.628
98.588818,0.392,-9.959,1.59
98.598522,0.431,-9.984,1.506
98.608226,0.471,-9.984,1.506
98.61793,0.51,-9.991,1.544
98.627634,0.549,-10.023,1.499
98.637338,0.549,-9.991,1.544
98.647042,0.549,-9.991,1.544
98.656746,0.51,-9.953,1.551
98.66645,0.51,-9.953,1.551
98.676154,0.51,-9.953,1.551
98.685865,0.51,-9.998,1.583
98.695576,0.549,-10.005,1.622
98.705287,0.549,-9.991,1.544
98.714998,0.51,-9.991,1.544
98.724709,0.51,-9.998,1.583
98.73442,0.549,-9.998,1.583
98.744131,0.549,-9.998,1.583
98.753842,0.51,-9.984,1.506
98.763553,0.588,-10.062,1.492
98.773264,0.588,-10.1,1.485
98.782975,0.549,-10.03,1.537
98.792686,0.549,-9.984,1.506
98.802397,0.588,-9.978,1.467
98.812108,0.549,-9.984,1.506
98.821807,0.628,-10.03,1.537
98.831506,0.588,-9.991,1.544
98.841205,0.51,-9.932,1.435
98.850904,0.51,-9.953,1.551
98.860603,0.471,-9.953,1.551
98.870302,0.471,-9.959,1.59
98.880001,0.471,-9.973,1.667
98.8897,0.471,-10.043,1.615
98.899399,0.431,-10.153,1.556
98.909098,0.471,-10.05,1.653
98.918797,0.471,-10.096,1.685
98.928496,0.431,-10.05,1.653
98.938195,0.431,-10.069,1.531
98.947894,0.471,-9.928,1.635
98.957614,0.471,-9.934,1.674
98.967334,0.51,-9.909,1.758
98.977054,0.51,-9.903,1.719
98.986774,0.51,-9.864,1.726
98.996494,0.471,-9.896,1.681
99.006214,0.51,-9.875,1.565
99.015934,0.471,-9.932,1.435
99.025654,0.471,-9.83,1.533
99.035374,0.431,-9.907,1.519
99.045094,0.431,-9.869,1.526
99.054814,0.392,-9.9,1.481
99.064534,0.431,-9.9,1.481
99.074254,0.431,-9.907,1.519
99.083991,0.392,-9.939,1.474
99.093728,0.392,-9.9,1.481
99.103465,0.471,-9.939,1.474
99.113202,0.431,-9.862,1.487
99.122939,0.392,-9.855,1.449
99.132676,0.431,-9.9,1.481
99.142413,0.392,-9.925,1.397
99.15215,0.353,-9.939,1.474
99.161887,0.353,-9.925,1.397
99.171624,0.353,-9.862,1.487
99.181361,0.353,-9.875,1.565
99.191098,0.353,-9.921,1.597
99.200835,0.353,-9.882,1.603
99.210572,0.314,-9.928,1.635
99.220303,0.314,-9.914,1.558
99.230034,0.353,-9.978,1.467
99.239765,0.353,-10.016,1.46
99.249496,0.353,-9.946,1.512
99.259227,0.353,-10.023,1.499
99.268958,0.353,-10.107,1.524
99.278689,0.314,-10.03,1.537
99.28842,0.353,-10.069,1.531
99.298151,0.353,-10.043,1.615
99.307882,0.353,-9.966,1.628
99.317613,0.353,-9.966,1.628
99.327344,0.392,-9.959,1.59
99.337075,0.392,-9.998,1.583
99.346806,0.431,-9.998,1.583
99.356516,0.392,-10.016,1.46
99.366226,0.431,-9.925,1.397
99.375936,0.471,-9.939,1.474
99.385646,0.471,-9.946,1.512
99.395356,0.51,-9.907,1.519
99.405066,0.549,-9.875,1.565
99.414776,0.549,-9.837,1.572
99.424486,0.549,-9.875,1.565
99.434196,0.51,-9.882,1.603
99.443906,0.471,-9.889,1.642
99.453616,0.51,-9.921,1.597
99.463326,0.471,-9.966,1.628
99.473036,0.471,-9.966,1.628
99.482746,0.51,-9.941,1.712
99.492476,0.51,-9.928,1.635
99.502206,0.471,-9.941,1.712
99.511936,0.431,-9.889,1.642
99.521666,0.471,-9.889,1.642
99.531396,0.471,-9.921,1.597
99.541126,0.51,-9.921,1.597
99.550856,0.51,-9.966,1.628
99.560586,0.471,-10.005,1.622
99.570316,0.471,-10.05,1.653
99.580046,0.431,-10.057,1.692
99.589776,0.471,-10.05,1.653
99.599506,0.431,-10.096,1.685
99.609236,0.431,-10.103,1.724
99.618966,0.471,-10.103,1.724
99.628681,0.431,-10.109,1.762
99.638396,0.392,-10.064,1.731
99.648111,0.353,-10.071,1.769
99.657826,0.353,-10.071,1.769
99.667541,0.353,-10.032,1.776
99.677256,0.353,-10.078,1.808
99.686971,0.353,-10.103,1.724
99.696686,0.314,-10.057,1.692
99.706401,0.353,-10.012,1.66
99.716116,0.353,-10.005,1.622
99.725831,0.392,-9.998,1.583
99.735546,0.392,-10.03,1.537
99.745261,0.353,-10.03,1.537
99.754976,0.353,-9.889,1.642
99.764696,0.353,-9.889,1.642
99.774416,0.314,-9.921,1.597
99.784136,0.275,-9.907,1.519
99.793856,0.275,-9.932,1.435
99.803576,0.275,-9.932,1.435
99.813296,0.235,-9.9,1.481
99.823016,0.235,-9.798,1.578
99.832736,0.235,-9.805,1.617
99.842456,0.235,-9.773,1.662
99.852176,0.275,-9.805,1.617
99.861896,0.275,-9.837,1.572
99.871616,0.235,-9.855,1.449
99.881336,0.235,-9.887,1.403
99.891036,0.196,-9.88,1.365
99.900736,0.196,-9.919,1.358
99.910436,0.157,-9.957,1.351
99.920136,0.196,-9.996,1.344
99.929836,0.196,-9.964,1.39
99.939536,0.196,-10.023,1.499
99.949236,0.196,-9.978,1.467
99.958936,0.196,-10.016,1.46
99.968636,0.235,-10.023,1.499
99.978336,0.235,-10.03,1.537
99.988036,0.235,-9.991,1.544
99.997736,0.196,-9.998,1.583
100.007436,0.196,-10.043,1.615
100.017136,0.235,-10.012,1.66
100.026839,0.235,-9.98,1.706
100.036542,0.314,-9.966,1.628
100.046245,0.314,-10.005,1.622
100.055948,0.275,-10.012,1.66
100.065651,0.275,-10.012,1.66
100.075354,0.275,-9.973,1.667
100.085057,0.275,-10.057,1.692
100.09476,0.275,-10.018,1.699
100.104463,0.275,-9.948,1.751
100.114166,0.235,-9.903,1.719
100.123869,0.235,-9.948,1.751
100.133572,0.275,-9.98,1.706
100.143275,0.275,-9.987,1.744
100.152955,0.275,-10.025,1.737
100.162635,0.314,-10.071,1.769
100.172315,0.275,-10.032,1.776
100.181995,0.314,-10.039,1.815
100.191675,0.353,-10.025,1.737
100.201355,0.353,-10.025,1.737
100.211035,0.353,-10.025,1.737
100.220715,0.314,-9.987,1.744
100.230395,0.353,-9.955,1.79
100.240075,0.392,-9.948,1.751
100.249755,0.353,-9.909,1.758
100.259435,0.392,-9.909,1.758
100.269115,0.353,-9.909,1.758
100.278795,0.353,-9.903,1.719
100.288476,0.314,-9.903,1.719
100.298157,0.314,-9.864,1.726
100.307838,0.275,-9.909,1.758
100.317519,0.275,-9.864,1.726
100.3272,0.275,-9.857,1.687
100.336881,0.235,-9.896,1.681
100.346562,0.196,-9.903,1.719
100.356243,0.196,-9.903,1.719
100.365924,0.235,-9.896,1.681
100.375605,0.196,-9.934,1.674
100.385286,0.235,-9.941,1.712
100.394967,0.196,-9.864,1.726
100.404648,0.196,-9.832,1.772
100.414309,0.275,-9.846,1.849
100.42397,0.235,-9.846,1.849
100.433631,0.157,-9.884,1.842
100.443292,0.196,-9.884,1.842
100.452953,0.196,-9.923,1.835
100.462614,0.235,-10,1.822
100.472275,0.196,-10.007,1.86
100.481936,0.235,-10.046,1.853
100.491597,0.235,-10.007,1.86
100.501258,0.235,-10,1.822
100.510919,0.196,-9.923,1.835
100.52058,0.196,-9.923,1.835
100.530241,0.157,-9.923,1.835
100.539902,0.196,-9.878,1.803
100.549568,0.196,-9.853,1.887
100.559234,0.196,-9.898,1.919
100.5689,0.157,-9.93,1.874
100.578566,0.196,-9.891,1.881
100.588232,0.196,-9.923,1.835
100.597898,0.196,-9.962,1.828
100.607564,0.157,-9.968,1.867
100.61723,0.157,-9.968,1.867
100.626896,0.196,-9.968,1.867
100.636562,0.157,-9.93,1.874
100.646228,0.196,-9.93,1.874
100.655894,0.196,-9.937,1.912
100.66556,0.196,-9.975,1.906
100.675253,0.235,-9.982,1.944
100.684946,0.196,-9.937,1.912
100.694639,0.196,-9.968,1.867
100.704332,0.196,-9.962,1.828
100.714025,0.196,-9.962,1.828
100.723718,0.196,-10,1.822
100.733411,0.235,-9.993,1.783
100.743104,0.235,-10,1.822
100.752797,0.235,-9.968,1.867
100.76249,0.235,-9.968,1.867
100.772183,0.196,-9.916,1.797
100.781876,0.196,-9.916,1.797
100.791569,0.196,-9.878,1.803
100.801271,0.157,-9.903,1.719
100.810973,0.157,-9.909,1.758
100.820675,0.157,-9.909,1.758
100.830377,0.157,-9.955,1.79
100.840079,0.235,-9.941,1.712
100.849781,0.235,-9.941,1.712
100.859483,0.235,-9.903,1.719
100.869185,0.275,-9.909,1.758
100.878887,0.275,-9.916,1.797
100.888589,0.275,-9.909,1.758
100.898291,0.275,-9.916,1.797
100.907993,0.314,-9.871,1.765
100.917695,0.353,-9.909,1.758
100.927397,0.353,-9.909,1.758
100.937099,0.353,-9.878,1.803
100.946786,0.353,-9.909,1.758
100.956473,0.353,-9.948,1.751
100.96616,0.314,-10.018,1.699
100.975847,0.314,-9.941,1.712
100.985534,0.353,-9.941,1.712
100.995221,0.392,-9.941,1.712
101.004908,0.353,-9.987,1.744
101.014595,0.392,-9.987,1.744
101.024282,0.392,-9.941,1.712
101.033969,0.431,-9.903,1.719
101.043656,0.392,-9.941,1.712
101.053343,0.392,-9.903,1.719
101.06303,0.392,-9.903,1.719
101.072717,0.392,-9.928,1.635
101.082432,0.471,-9.896,1.681
101.092147,0.392,-9.993,1.783
101.101862,0.431,-9.987,1.744
101.111577,0.431,-10.018,1.699
101.121292,0.431,-10.018,1.699
101.131007,0.471,-9.941,1.712
101.140722,0.471,-9.941,1.712
101.150437,0.471,-9.909,1.758
101.160152,0.392,-9.864,1.726
101.169867,0.392,-9.871,1.765
101.179582,0.392,-9.903,1.719
101.189297,0.353,-9.864,1.726
101.199012,0.353,-9.896,1.681
101.208728,0.353,-9.896,1.681
101.218444,0.314,-9.955,1.79
101.22816,0.314,-9.948,1.751
101.237876,0.314,-9.941,1.712
101.247592,0.275,-9.973,1.667
101.257308,0.275,-9.941,1.712
101.267024,0.275,-9.941,1.712
101.27674,0.314,-9.98,1.706
101.286456,0.314,-9.941,1.712
101.296172,0.314,-9.909,1.758
101.305888,0.353,-9.903,1.719
101.315604,0.353,-9.941,1.712
101.32532,0.353,-9.948,1.751
101.335036,0.353,-9.948,1.751
101.344772,0.353,-9.962,1.828
101.354508,0.392,-9.916,1.797
101.364244,0.353,-9.909,1.758
101.37398,0.353,-9.916,1.797
101.383716,0.392,-9.948,1.751
101.393452,0.431,-9.987,1.744
101.403188,0.431,-9.941,1.712
101.412924,0.431,-9.934,1.674
101.42266,0.431,-9.934,1.674
101.432396,0.392,-9.973,1.667
101.442132,0.392,-9.934,1.674
101.451868,0.353,-9.896,1.681
101.461604,0.353,-9.903,1.719
101.471323,0.314,-9.889,1.642
101.481042,0.314,-9.896,1.681
101.490761,0.314,-9.903,1.719
101.50048,0.314,-9.916,1.797
101.510199,0.275,-9.909,1.758
101.519918,0.235,-9.909,1.758
101.529637,0.235,-9.871,1.765
101.539356,0.196,-9.871,1.765
101.549075,0.275,-9.909,1.758
101.558794,0.275,-9.948,1.751
101.568513,0.235,-9.955,1.79
101.578232,0.235,-9.948,1.751
101.587951,0.235,-9.993,1.783
101.59767,0.235,-9.993,1.783
101.607389,0.235,-9.993,1.783
101.617108,0.235,-10.032,1.776
101.626827,0.275,-10.032,1.776
101.636546,0.235,-10,1.822
101.646265,0.275,-9.993,1.783
101.655984,0.314,-9.934,1.674
101.665703,0.314,-9.987,1.744
101.675422,0.314,-9.948,1.751
101.685141,0.353,-9.941,1.712
101.69486,0.314,-9.903,1.719
101.704579,0.314,-9.903,1.719
101.714298,0.314,-9.909,1.758
101.724017,0.314,-9.903,1.719
101.733736,0.275,-9.941,1.712
101.743466,0.353,-9.934,1.674
101.753196,0.431,-9.889,1.642
101.762926,0.353,-9.896,1.681
101.772656,0.353,-9.896,1.681
101.782386,0.353,-9.903,1.719
101.792116,0.353,-9.903,1.719
101.801846,0.353,-9.909,1.758
101.811576,0.314,-9.903,1.719
101.821306,0.314,-9.857,1.687
101.831036,0.314,-9.864,1.726
101.840766,0.353,-9.864,1.726
101.850496,0.392,-9.903,1.719
101.860226,0.392,-9.903,1.719
101.869954,0.314,-9.909,1.758
101.879682,0.314,-9.903,1.719
101.88941,0.392,-9.987,1.744
101.899138,0.392,-9.993,1.783
101.908866,0.392,-9.955,1.79
101.918594,0.392,-9.909,1.758
101.928322,0.392,-9.948,1.751
101.93805,0.392,-9.955,1.79
101.947778,0.431,-9.987,1.744
101.957506,0.392,-9.993,1.783
101.967234,0.392,-9.993,1.783
101.976962,0.392,-10.032,1.776
101.98669,0.471,-9.993,1.783
101.996418,0.392,-9.993,1.783
102.006145,0.392,-9.993,1.783
102.015872,0.431,-9.955,1.79
102.025599,0.392,-9.916,1.797
102.035326,0.392,-9.909,1.758
102.045053,0.392,-10.007,1.86
102.05478,0.431,-9.962,1.828
102.064507,0.471,-9.916,1.797
102.074234,0.471,-9.955,1.79
102.083961,0.431,-9.916,1.797
102.093688,0.431,-9.923,1.835
102.103415,0.392,-9.884,1.842
102.113142,0.431,-9.93,1.874
102.122869,0.392,-9.923,1.835
102.132596,0.431,-9.923,1.835
102.142293,0.392,-9.937,1.912
102.15199,0.392,-9.937,1.912
102.161687,0.392,-9.884,1.842
102.171384,0.392,-9.93,1.874
102.181081,0.392,-9.93,1.874
102.190778,0.353,-9.968,1.867
102.200475,0.353,-9.975,1.906
102.210172,0.392,-9.975,1.906
102.219869,0.353,-9.937,1.912
102.229566,0.314,-9.968,1.867
102.239263,0.353,-9.975,1.906
102.24896,0.275,-9.975,1.906
102.258657,0.275,-9.968,1.867
102.268354,0.235,-9.937,1.912
102.278058,0.235,-9.923,1.835
102.287762,0.235,-9.975,1.906
102.297466,0.196,-9.943,1.951
102.30717,0.196,-9.943,1.951
102.316874,0.196,-9.912,1.996
102.326578,0.235,-9.898,1.919
102.336282,0.235,-9.905,1.958
102.345986,0.235,-9.898,1.919
102.35569,0.235,-9.898,1.919
102.365394,0.235,-9.898,1.919
102.375098,0.235,-9.859,1.926
102.384802,0.235,-9.866,1.965
102.394506,0.235,-9.866,1.965
102.40419,0.196,-9.853,1.887
102.413874,0.196,-9.859,1.926
102.423558,0.235,-9.853,1.887
102.433242,0.235,-9.898,1.919
102.442926,0.235,-9.937,1.912
102.45261,0.235,-9.898,1.919
102.462294,0.235,-9.975,1.906
102.471978,0.235,-9.968,1.867
102.481662,0.275,-9.898,1.919
102.491346,0.275,-9.975,1.906
102.50103,0.275,-9.891,1.881
102.510714,0.235,-9.93,1.874
102.520398,0.235,-9.937,1.912
102.530082,0.275,-9.937,1.912
102.539768,0.275,-9.93,1.874
102.549454,0.235,-9.923,1.835
102.55914,0.235,-9.923,1.835
102.568826,0.235,-9.93,1.874
102.578512,0.235,-9.923,1.835
102.588198,0.235,-9.884,1.842
102.597884,0.235,-9.916,1.797
102.60757,0.235,-9.878,1.803
102.617256,0.196,-9.878,1.803
102.626942,0.196,-9.878,1.803
102.636628,0.235,-9.884,1.842
102.646314,0.235,-9.846,1.849
102.656,0.235,-9.884,1.842
102.665666,0.275,-9.878,1.803
102.675332,0.275,-9.923,1.835
102.684998,0.275,-9.916,1.797
102.694664,0.235,-9.923,1.835
102.70433,0.235,-9.916,1.797
102.713996,0.196,-9.955,1.79
102.723662,0.235,-9.955,1.79
102.733328,0.235,-9.962,1.828
102.742994,0.275,-9.948,1.751
102.75266,0.235,-9.955,1.79
102.762326,0.235,-9.955,1.79
102.771992,0.196,-9.955,1.79
102.781658,0.196,-9.955,1.79
102.791324,0.235,-9.962,1.828
102.800995,0.275,-9.923,1.835
102.810666,0.235,-9.923,1.835
102.820337,0.235,-9.884,1.842
102.830008,0.275,-9.853,1.887
102.839679,0.235,-9.807,1.856
102.84935,0.275,-9.846,1.849
102.859021,0.235,-9.846,1.849
102.868692,0.196,-9.853,1.887
102.878363,0.196,-9.884,1.842
102.888034,0.235,-9.962,1.828
102.897705,0.275,-10,1.822
102.907376,0.275,-9.955,1.79
102.917047,0.275,-9.955,1.79
102.926701,0.275,-9.993,1.783
102.936355,0.275,-9.993,1.783
102.946009,0.235,-9.955,1.79
102.955663,0.275,-9.993,1.783
102.965317,0.235,-9.955,1.79
102.974971,0.275,-9.993,1.783
102.984625,0.235,-9.955,1.79
102.994279,0.235,-9.955,1.79
103.003933,0.235,-9.955,1.79
103.013587,0.235,-9.962,1.828
103.023241,0.235,-9.916,1.797
103.032895,0.235,-9.948,1.751
103.042549,0.235,-9.98,1.706
103.052203,0.275,-9.987,1.744
103.061866,0.196,-9.993,1.783
103.071529,0.275,-9.987,1.744
103.081192,0.196,-9.987,1.744
103.090855,0.235,-10.025,1.737
103.100518,0.235,-10.018,1.699
103.110181,0.275,-10.025,1.737
103.119844,0.275,-10.018,1.699
103.129507,0.275,-10.012,1.66
103.13917,0.235,-10.012,1.66
103.148833,0.235,-10.005,1.622
103.158496,0.275,-10.012,1.66
103.168159,0.314,-10.005,1.622
103.177822,0.314,-9.959,1.59
103.18749,0.275,-9.921,1.597
103.197158,0.275,-9.959,1.59
103.206826,0.275,-9.914,1.558
103.216494,0.235,-9.921,1.597
103.226162,0.275,-9.953,1.551
103.23583,0.275,-10.03,1.537
103.245498,0.235,-9.991,1.544
103.255166,0.275,-9.953,1.551
103.264834,0.275,-9.978,1.467
103.274502,0.235,-10.023,1.499
103.28417,0.235,-10.023,1.499
103.293838,0.275,-9.939,1.474
103.303506,0.314,-10.016,1.46
103.313174,0.275,-10.016,1.46
103.322828,0.275,-10.009,1.422
103.332482,0.314,-9.971,1.428
103.342136,0.275,-9.939,1.474
103.35179,0.275,-9.932,1.435
103.361444,0.275,-9.9,1.481
103.371098,0.275,-9.894,1.442
103.380752,0.275,-9.932,1.435
103.390406,0.275,-9.925,1.397
103.40006,0.235,-9.946,1.512
103.409714,0.275,-9.9,1.481
103.419368,0.235,-9.939,1.474
103.429022,0.196,-9.946,1.512
103.438676,0.157,-9.946,1.512
103.44833,0.157,-9.978,1.467
103.458003,0.118,-9.939,1.474
103.467676,0.157,-9.984,1.506
103.477349,0.118,-9.932,1.435
103.487022,0.118,-10.009,1.422
103.496695,0.118,-10.009,1.422
103.506368,0.157,-9.971,1.428
103.516041,0.157,-9.964,1.39
103.525714,0.157,-9.964,1.39
103.535387,0.196,-9.971,1.428
103.54506,0.235,-9.939,1.474
103.554733,0.235,-9.939,1.474
103.564406,0.235,-9.946,1.512
103.574079,0.235,-9.946,1.512
103.583768,0.275,-9.971,1.428
103.593457,0.275,-9.971,1.428
103.603146,0.235,-10.009,1.422
103.612835,0.235,-10.009,1.422
103.622524,0.196,-10.009,1.422
103.632213,0.157,-10.009,1.422
103.641902,0.196,-9.978,1.467
103.651591,0.157,-9.978,1.467
103.66128,0.157,-10.009,1.422
103.670969,0.118,-10.009,1.422
103.680658,0.118,-10.016,1.46
103.690347,0.157,-10.055,1.453
103.700036,0.118,-10.055,1.453
103.709725,0.118,-10.023,1.499
103.719414,0.157,-10.009,1.422
103.729103,0.118,-9.971,1.428
103.738792,0.157,-9.978,1.467
103.748481,0.118,-9.978,1.467
103.75817,0.157,-9.978,1.467
103.767859,0.118,-9.978,1.467
103.777548,0.078,-9.932,1.435
103.787237,0.078,-9.932,1.435
103.796926,0.078,-9.978,1.467
103.806615,0.118,-10.016,1.46
103.816304,0.118,-10.062,1.492
103.825993,0.118,-10.069,1.531
103.835682,0.157,-10.062,1.492
103.845371,0.157,-10.062,1.492
103.855048,0.118,-10.009,1.422
103.864725,0.078,-10.016,1.46
103.874402,0.118,-9.978,1.467
103.884079,0.118,-9.978,1.467
103.893756,0.157,-9.978,1.467
103.903433,0.118,-9.939,1.474
103.91311,0.118,-9.978,1.467
103.922787,0.118,-9.946,1.512
103.932464,0.118,-9.9,1.481
103.942141,0.118,-9.946,1.512
103.951818,0.118,-9.946,1.512
103.961495,0.118,-9.907,1.519
103.971172,0.118,-9.946,1.512
103.980849,0.078,-9.946,1.512
103.990519,0.118,-9.953,1.551
104.000189,0.157,-9.939,1.474
104.009859,0.118,-9.946,1.512
104.019529,0.078,-9.991,1.544
104.029199,0.118,-9.984,1.506
104.038869,0.078,-9.953,1.551
104.048539,0.078,-9.914,1.558
104.058209,0.078,-9.914,1.558
104.067879,0.118,-9.959,1.59
104.077549,0.118,-9.959,1.59
104.087219,0.118,-9.959,1.59
104.096889,0.157,-9.959,1.59
104.106559,0.157,-10.037,1.576
104.116229,0.196,-10.037,1.576
104.125914,0.157,-10.075,1.569
104.135599,0.157,-10.03,1.537
104.145284,0.157,-10.043,1.615
104.154969,0.157,-10.043,1.615
104.164654,0.157,-9.998,1.583
104.174339,0.157,-9.998,1.583
104.184024,0.118,-9.959,1.59
104.193709,0.078,-9.921,1.597
104.203394,0.078,-9.959,1.59
104.213079,0.118,-9.966,1.628
104.222764,0.078,-9.966,1.628
104.232449,0.118,-9.959,1.59
104.242134,0.118,-9.966,1.628
104.251822,0.078,-10.012,1.66
104.26151,0.118,-10.005,1.622
104.271198,0.118,-9.998,1.583
104.280886,0.118,-9.998,1.583
104.290574,0.118,-9.966,1.628
104.300262,0.118,-9.966,1.628
104.30995,0.078,-9.966,1.628
104.319638,0.078,-9.928,1.635
104.329326,0.078,-9.959,1.59
104.339014,0.118,-9.928,1.635
104.348702,0.118,-9.959,1.59
104.35839,0.118,-9.966,1.628
104.368078,0.118,-9.928,1.635
104.377766,0.118,-9.966,1.628
104.387459,0.078,-9.966,1.628
104.397152,0.118,-9.973,1.667
104.406845,0.118,-9.959,1.59
104.416538,0.118,-9.921,1.597
104.426231,0.118,-9.959,1.59
104.435924,0.078,-9.959,1.59
104.445617,0.078,-9.966,1.628
104.45531,0.078,-9.928,1.635
104.465003,0.078,-9.889,1.642
104.474696,0.078,-9.896,1.681
104.484389,0.039,-9.896,1.681
104.494082,0.039,-9.896,1.681
104.503775,0.039,-9.973,1.667
104.513468,0,-9.973,1.667
104.523159,0.078,-10.005,1.622
104.53285,0.118,-10.043,1.615
104.542541,0.078,-10.005,1.622
104.552232,0.039,-9.973,1.667
104.561923,0,-9.934,1.674
104.571614,0,-9.934,1.674
104.581305,-0.039,-9.889,1.642
104.590996,-0.039,-9.889,1.642
104.600687,-0.039,-9.896,1.681
104.610378,-0.039,-9.934,1.674
104.620069,-0.039,-9.941,1.712
104.62976,0,-9.934,1.674
104.639451,0,-9.973,1.667
104.649142,0,-9.973,1.667
104.658852,0.078,-9.948,1.751
104.668562,0.118,-9.941,1.712
104.678272,0.078,-9.941,1.712
104.687982,0.078,-9.941,1.712
104.697692,0.078,-9.941,1.712
104.707402,0.118,-9.941,1.712
104.717112,0.157,-9.98,1.706
104.726822,0.196,-9.941,1.712
104.736532,0.196,-9.941,1.712
104.746242,0.196,-9.941,1.712
104.755952,0.157,-9.909,1.758
104.765662,0.157,-9.909,1.758
104.775372,0.196,-9.948,1.751
104.78509,0.118,-9.948,1.751
104.794808,0.118,-9.909,1.758
104.804526,0.157,-9.962,1.828
104.814244,0.118,-9.962,1.828
104.823962,0.118,-9.962,1.828
104.83368,0.078,-9.916,1.797
104.843398,0.078,-9.916,1.797
104.853116,0.039,-9.948,1.751
104.862834,0.039,-9.909,1.758
104.872552,0,-9.871,1.765
104.88227,0,-9.923,1.835
104.891988,0,-9.923,1.835
104.901706,0,-9.93,1.874
104.911424,-0.039,-9.93,1.874
104.921174,-0.039,-9.923,1.835
104.930924,-0.118,-10.046,1.853
104.940674,-0.078,-10,1.822
104.950424,-0.039,-9.962,1.828
104.960174,-0.039,-9.962,1.828
104.969924,-0.039,-10,1.822
104.979674,0,-9.962,1.828
104.989424,0,-9.962,1.828
104.999174,0,-9.955,1.79
105.008924,0,-9.955,1.79
105.018674,0,-9.962,1.828
105.028424,0,-9.948,1.751
105.038174,0,-9.916,1.797
105.047937,-0.039,-9.941,1.712
105.0577,0.039,-9.987,1.744
105.067463,0,-10.007,1.86
105.077226,-0.078,-10.046,1.853
105.086989,-0.078,-9.955,1.79
105.096752,0,-9.987,1.744
105.106515,0,-9.941,1.712
105.116278,0.039,-9.948,1.751
105.126041,0.039,-9.903,1.719
105.135804,0.039,-9.864,1.726
105.145567,0.039,-9.903,1.719
105.15533,0,-9.896,1.681
105.165093,-0.039,-9.896,1.681
105.174856,-0.039,-9.903,1.719
105.184633,0.039,-9.896,1.681
105.19441,0,-9.934,1.674
105.204187,0,-9.941,1.712
105.213964,0.039,-9.941,1.712
105.223741,0,-9.934,1.674
105.233518,0,-9.941,1.712
105.243295,0,-9.934,1.674
105.253072,0,-9.98,1.706
105.262849,0,-9.98,1.706
105.272626,-0.039,-9.98,1.706
105.282403,-0.039,-9.98,1.706
105.29218,0,-9.98,1.706
105.301957,0,-9.941,1.712
105.311734,0,-9.98,1.706
105.321494,0,-9.941,1.712
105.331254,-0.039,-9.903,1.719
105.341014,0,-9.896,1.681
105.350774,-0.039,-9.941,1.712
105.360534,-0.039,-9.941,1.712
105.370294,-0.039,-9.909,1.758
105.380054,-0.039,-9.941,1.712
105.389814,0,-9.941,1.712
105.399574,0,-9.903,1.719
105.409334,-0.039,-9.903,1.719
105.419094,-0.039,-9.864,1.726
105.428854,0,-9.832,1.772
105.438614,0,-9.832,1.772
105.448374,-0.039,-9.871,1.765
105.458149,-0.078,-9.891,1.881
105.467924,0,-9.916,1.797
105.477699,0,-9.962,1.828
105.487474,0,-9.968,1.867
105.497249,0.039,-10.007,1.86
105.507024,0,-10.007,1.86
105.516799,0.039,-10.007,1.86
105.526574,0.039,-10.084,1.847
105.536349,0.039,-10.046,1.853
105.546124,0,-10.053,1.892
105.555899,0,-10.053,1.892
105.565674,0,-10.053,1.892
105.575449,0,-10.014,1.899
105.585232,0.039,-10.039,1.815
105.595015,0,-10.039,1.815
105.604798,0,-10.032,1.776
105.614581,0,-10.039,1.815
105.624364,0,-10.078,1.808
105.634147,0,-9.987,1.744
105.64393,0,-9.987,1.744
105.653713,-0.039,-9.941,1.712
105.663496,0,-9.941,1.712
105.673279,0,-9.903,1.719
105.683062,0,-9.896,1.681
105.692845,0.039,-9.941,1.712
105.702628,0.039,-9.934,1.674
105.712411,0.039,-9.973,1.667
105.722173,0,-9.998,1.583
105.731935,0.039,-9.966,1.628
105.741697,0.078,-10.005,1.622
105.751459,0.078,-10.005,1.622
105.761221,0.118,-10.082,1.608
105.770983,0.078,-10.146,1.517
105.780745,0.118,-10.353,1.56
105.790507,0.118,-9.921,1.597
105.800269,0.039,-9.996,1.344
105.810031,0,-10.325,1.406
105.819793,-0.039,-9.973,1.667
105.829555,0,-9.766,1.624
105.839317,-0.039,-9.721,1.592
105.849079,-0.078,-9.966,1.628
105.858807,-0.039,-10.043,1.615
105.868535,-0.039,-9.959,1.59
105.878263,0,-9.862,1.487
105.887991,0,-9.816,1.456
105.897719,0,-9.978,1.467
105.907447,0,-9.984,1.506
105.917175,0,-9.914,1.558
105.926903,0,-9.9,1.481
105.936631,-0.039,-9.991,1.544
105.946359,-0.039,-10.03,1.537
105.956087,-0.039,-10.009,1.422
105.965815,-0.078,-10.016,1.46
105.975543,-0.039,-9.978,1.467
105.985271,-0.039,-9.932,1.435
105.995028,-0.118,-10.003,1.383
106.004785,-0.039,-9.939,1.474
106.014542,-0.078,-9.848,1.41
106.024299,-0.118,-9.789,1.301
106.034056,-0.118,-9.828,1.294
106.043813,-0.118,-9.789,1.301
106.05357,-0.078,-9.782,1.263
106.063327,-0.078,-9.821,1.256
106.073084,-0.078,-9.859,1.249
106.082841,-0.078,-9.853,1.21
106.092598,-0.039,-9.737,1.231
106.102355,0,-9.775,1.224
106.112112,0.039,-9.891,1.203
106.121869,0.039,-9.975,1.228
106.131608,0.078,-9.989,1.306
106.141347,0.078,-10.048,1.415
106.151086,0.039,-10.08,1.369
106.160825,0.078,-10.119,1.363
106.170564,0.039,-10.164,1.394
106.180303,-0.039,-10.209,1.426
106.190042,0,-10.209,1.426
106.199781,-0.039,-10.312,1.328
106.20952,-0.039,-10.28,1.374
106.219259,-0.039,-10.196,1.349
106.228998,0,-10.119,1.363
106.238737,0.039,-10.003,1.383
106.248476,0,-9.887,1.403
106.258185,0,-9.816,1.456
106.267894,-0.039,-9.732,1.431
106.277603,0,-9.771,1.424
106.287312,0.039,-9.887,1.403
106.297021,0.039,-9.957,1.351
106.30673,0.078,-10.028,1.299
106.316439,0.157,-10.105,1.285
106.326148,0.157,-10.15,1.317
106.335857,0.235,-10.059,1.253
106.345566,0.196,-9.937,1.235
106.355275,0.196,-9.796,1.34
106.364984,0.196,-9.662,1.483
106.374693,0.118,-9.553,1.542
106.384402,0.078,-9.475,1.556
106.394083,0,-9.462,1.478
106.403764,0,-9.616,1.451
106.413445,0,-9.809,1.417
106.423126,0,-10.098,1.247
106.432807,0,-10.08,1.369
106.442488,0,-9.882,1.603
106.452169,0.078,-9.857,1.687
106.46185,0.118,-10.023,1.499
106.471531,0.118,-10.041,1.376
106.481212,0.039,-9.873,1.326
106.490893,0.039,-9.925,1.397
106.500574,-0.039,-9.823,1.494
106.510255,0,-9.682,1.599
106.519936,0.039,-9.644,1.606
106.529612,0,-9.675,1.56
106.539288,-0.039,-9.812,1.656
106.548964,0.039,-9.889,1.642
106.55864,0.078,-9.864,1.726
106.568316,0.039,-9.825,1.733
106.577992,0.039,-9.762,1.824
106.587668,0,-9.723,1.831
106.597344,0,-9.646,1.844
106.60702,0,-9.569,1.858
106.616696,0,-9.716,1.792
106.626372,0,-9.941,1.712
106.636048,0,-10.212,1.665
106.645724,0.078,-10.443,1.624
106.655389,0.118,-10.446,1.862
106.665054,0.157,-10.312,2.006
106.674719,0.157,-10.241,2.058
106.684384,0.118,-10.318,2.044
106.694049,0.118,-10.177,2.149
106.703714,0.157,-10.152,2.233
106.713379,0.118,-10.262,2.174
106.723044,0.078,-10.268,2.212
106.732709,0.118,-10.268,2.212
106.742374,0.078,-10.205,2.303
106.752039,0.039,-10.107,2.201
106.761704,0.039,-10.037,2.253
106.771369,0.039,-9.959,2.267
106.781034,0,-9.984,2.183
106.790693,-0.039,-9.953,2.228
106.800352,0,-9.978,2.144
106.810011,0.039,-9.978,2.144
106.81967,-0.039,-9.991,2.221
106.829329,0,-9.984,2.183
106.838988,0.039,-10.016,2.137
106.848647,0.078,-10.068,2.208
106.858306,0.078,-10.114,2.24
106.867965,0.118,-10.087,2.085
106.877624,0.118,-9.932,2.112
106.887283,0.118,-9.925,2.074
106.896942,0.118,-9.893,2.119
106.906601,0.118,-9.996,2.021
106.91626,0.118,-9.912,1.996
106.925896,0.118,-9.88,2.042
106.935532,0.118,-9.796,2.017
106.945168,0.118,-9.859,1.926
106.954804,0.118,-9.859,1.926
106.96444,0.039,-9.891,1.881
106.974076,0,-9.884,1.842
106.983712,-0.039,-9.884,1.842
106.993348,-0.039,-9.884,1.842
107.002984,-0.078,-9.923,1.835
107.01262,-0.078,-9.884,1.842
107.022256,-0.078,-9.916,1.797
107.031892,-0.078,-9.878,1.803
107.041528,-0.118,-9.884,1.842
107.051164,-0.157,-9.814,1.894
107.060809,-0.157,-9.841,2.049
107.070454,-0.118,-9.757,2.024
107.080099,-0.157,-9.796,2.017
107.089744,-0.196,-9.744,1.946
107.099389,-0.118,-9.814,1.894
107.109034,-0.078,-9.814,1.894
107.118679,-0.078,-9.884,1.842
107.128324,-0.078,-9.8,1.817
107.137969,-0.078,-9.832,1.772
107.147614,-0.078,-9.807,1.856
107.157259,-0.039,-9.916,1.797
107.166904,-0.039,-9.853,1.887
107.176549,-0.039,-9.937,1.912
107.1862,-0.118,-9.95,1.99
107.195851,-0.078,-10.053,1.892
107.205502,-0.118,-10.021,1.937
107.215153,-0.078,-9.975,1.906
107.224804,-0.039,-9.898,1.919
107.234455,-0.078,-9.898,1.919
107.244106,-0.039,-9.93,1.874
107.253757,-0.078,-9.93,1.874
107.263408,-0.078,-9.93,1.874
107.273059,-0.078,-9.937,1.912
107.28271,-0.118,-10.007,1.86
107.292361,-0.118,-9.975,1.906
107.302012,-0.078,-9.937,1.912
107.311663,-0.118,-9.93,1.874
107.321304,-0.118,-9.943,1.951
107.330945,-0.118,-9.93,1.874
107.340586,-0.157,-9.884,1.842
107.350227,-0.196,-9.807,1.856
107.359868,-0.196,-9.8,1.817
107.369509,-0.157,-9.839,1.81
107.37915,-0.196,-9.832,1.772
107.388791,-0.196,-9.839,1.81
107.398432,-0.196,-9.832,1.772
107.408073,-0.196,-9.878,1.803
107.417714,-0.235,-9.871,1.765
107.427355,-0.235,-9.884,1.842
107.436996,-0.235,-9.884,1.842
107.446637,-0.196,-9.884,1.842
107.456263,-0.157,-9.905,1.958
107.465889,-0.196,-9.859,1.926
107.475515,-0.196,-9.859,1.926
107.485141,-0.157,-9.916,1.797
107.494767,-0.157,-9.923,1.835
107.504393,-0.118,-9.962,1.828
107.514019,-0.157,-9.93,1.874
107.523645,-0.196,-9.937,1.912
107.533271,-0.196,-9.891,1.881
107.542897,-0.196,-9.884,1.842
107.552523,-0.196,-9.891,1.881
107.562149,-0.196,-9.891,1.881
107.571775,-0.157,-9.846,1.849
107.581401,-0.196,-9.8,1.817
107.591025,-0.196,-9.769,1.862
107.600649,-0.157,-9.775,1.901
107.610273,-0.157,-9.807,1.856
107.619897,-0.157,-9.807,1.856
107.629521,-0.118,-9.814,1.894
107.639145,-0.118,-9.93,1.874
107.648769,-0.118,-9.937,1.912
107.658393,-0.078,-9.891,1.881
107.668017,-0.118,-9.853,1.887
107.677641,-0.078,-9.898,1.919
107.687265,-0.078,-9.905,1.958
107.696889,-0.078,-9.866,1.965
107.706513,-0.078,-9.866,1.965
107.716137,-0.078,-9.873,2.003
107.725787,0,-9.873,2.003
107.735437,-0.039,-9.912,1.996
107.745087,-0.078,-9.918,2.035
107.754737,-0.039,-9.95,1.99
107.764387,-0.078,-9.989,1.983
107.774037,-0.039,-9.996,2.021
107.783687,-0.078,-9.95,1.99
107.793337,-0.039,-10.003,2.06
107.802987,-0.039,-10.003,2.06
107.812637,-0.039,-9.957,2.028
107.822287,-0.039,-9.918,2.035
107.831937,-0.078,-9.887,2.081
107.841587,-0.118,-9.887,2.081
107.851245,-0.118,-9.893,2.119
107.860903,-0.157,-9.893,2.119
107.870561,-0.118,-9.88,2.042
107.880219,-0.039,-9.866,1.965
107.889877,-0.078,-9.873,2.003
107.899535,-0.039,-9.834,2.01
107.909193,-0.039,-9.841,2.049
107.918851,-0.039,-9.764,2.062
107.928509,-0.039,-9.725,2.069
107.938167,-0.039,-9.725,2.069
107.947825,0,-9.725,2.069
107.957483,0,-9.764,2.062
107.967141,0,-9.809,2.094
107.976799,0.039,-9.848,2.087
107.986467,0,-9.88,2.042
107.996135,0.039,-9.971,2.106
108.005803,0.078,-9.971,2.106
108.015471,0.078,-9.978,2.144
108.025139,0.039,-9.939,2.151
108.034807,0.039,-9.939,2.151
108.044475,0.039,-9.907,2.196
108.054143,0.078,-9.862,2.165
108.063811,0.118,-9.855,2.126
108.073479,0.078,-9.862,2.165
108.083147,0.078,-9.823,2.171
108.092815,0.118,-9.823,2.171
108.102483,0.078,-9.823,2.171
108.112151,0.078,-9.83,2.21
108.121852,0.039,-9.875,2.242
108.131553,0.039,-9.868,2.203
108.141254,0.078,-9.83,2.21
108.150955,0.039,-9.823,2.171
108.160656,0.039,-9.83,2.21
108.170357,0.039,-9.83,2.21
108.180058,0,-9.875,2.242
108.189759,0,-9.843,2.287
108.19946,0.039,-9.759,2.262
108.209161,0,-9.805,2.294
108.218862,0,-9.805,2.294
108.228563,0,-9.773,2.34
108.238264,0.039,-9.812,2.333
108.247984,0.039,-9.812,2.333
108.257704,0.039,-9.857,2.365
108.267424,0.078,-9.839,2.487
108.277144,0.039,-9.78,2.378
108.286864,0.039,-9.787,2.417
108.296584,0.039,-9.748,2.424
108.306304,0.078,-9.748,2.424
108.316024,0.118,-9.755,2.462
108.325744,0.157,-9.793,2.455
108.335464,0.157,-9.832,2.449
108.345184,0.157,-9.832,2.449
108.354904,0.157,-9.832,2.449
108.364624,0.157,-9.877,2.48
108.374344,0.235,-9.877,2.48
108.384077,0.275,-9.877,2.48
108.39381,0.314,-9.807,2.533
108.403543,0.235,-9.775,2.578
108.413276,0.235,-9.705,2.63
108.423009,0.235,-9.705,2.63
108.432742,0.235,-9.698,2.592
108.442475,0.235,-9.743,2.624
108.452208,0.235,-9.743,2.624
108.461941,0.275,-9.782,2.617
108.471674,0.275,-9.789,2.655
108.481407,0.275,-9.827,2.649
108.49114,0.275,-9.821,2.61
108.500873,0.275,-9.821,2.61
108.510606,0.275,-9.827,2.649
108.520329,0.275,-9.775,2.578
108.530052,0.275,-9.814,2.571
108.539775,0.275,-9.807,2.533
108.549498,0.314,-9.775,2.578
108.559221,0.235,-9.743,2.624
108.568944,0.235,-9.737,2.585
108.578667,0.235,-9.743,2.624
108.58839,0.235,-9.775,2.578
108.598113,0.235,-9.737,2.585
108.607836,0.235,-9.775,2.578
108.617559,0.235,-9.743,2.624
108.627282,0.235,-9.743,2.624
108.637005,0.196,-9.705,2.63
108.646728,0.196,-9.743,2.624
108.656477,0.235,-9.782,2.617
108.666226,0.275,-9.802,2.733
108.675975,0.235,-9.789,2.655
108.685724,0.235,-9.743,2.624
108.695473,0.196,-9.743,2.624
108.705222,0.235,-9.737,2.585
108.714971,0.196,-9.737,2.585
108.72472,0.196,-9.743,2.624
108.734469,0.196,-9.743,2.624
108.744218,0.196,-9.705,2.63
108.753967,0.235,-9.705,2.63
108.763716,0.235,-9.698,2.592
108.773465,0.235,-9.698,2.592
108.783193,0.196,-9.698,2.592
108.792921,0.196,-9.698,2.592
108.802649,0.235,-9.718,2.708
108.812377,0.235,-9.75,2.662
108.822105,0.157,-9.75,2.662
108.831833,0.196,-9.789,2.655
108.841561,0.235,-9.75,2.662
108.851289,0.196,-9.789,2.655
108.861017,0.196,-9.789,2.655
108.870745,0.196,-9.782,2.617
108.880473,0.235,-9.743,2.624
108.890201,0.235,-9.789,2.655
108.899929,0.235,-9.866,2.642
108.909657,0.275,-9.821,2.61
108.919385,0.235,-9.821,2.61
108.929107,0.235,-9.821,2.61
108.938829,0.275,-9.827,2.649
108.948551,0.235,-9.782,2.617
108.958273,0.235,-9.737,2.585
108.967995,0.196,-9.653,2.56
108.977717,0.196,-9.659,2.599
108.987439,0.157,-9.698,2.592
108.997161,0.157,-9.737,2.585
109.006883,0.157,-9.743,2.624
109.016605,0.118,-9.743,2.624
109.026327,0.118,-9.737,2.585
109.036049,0.157,-9.782,2.617
109.045771,0.118,-9.775,2.578
109.055481,0.157,-9.755,2.462
109.065191,0.275,-9.789,2.655
109.074901,0.196,-9.827,2.649
109.084611,0.196,-9.821,2.61
109.094321,0.157,-9.782,2.617
109.104031,0.118,-9.782,2.617
109.113741,0.157,-9.782,2.617
109.123451,0.118,-9.789,2.655
109.133161,0.157,-9.775,2.578
109.142871,0.157,-9.737,2.585
109.152581,0.157,-9.737,2.585
109.162291,0.157,-9.775,2.578
109.172001,0.157,-9.775,2.578
109.181711,0.157,-9.737,2.585
109.191408,0.157,-9.768,2.54
109.201105,0.196,-9.782,2.617
109.210802,0.157,-9.814,2.571
109.220499,0.118,-9.768,2.54
109.230196,0.118,-9.73,2.546
109.239893,0.118,-9.73,2.546
109.24959,0.118,-9.762,2.501
109.259287,0.078,-9.762,2.501
109.268984,0.118,-9.762,2.501
109.278681,0.118,-9.716,2.469
109.288378,0.118,-9.723,2.508
109.298075,0.118,-9.723,2.508
109.307772,0.078,-9.716,2.469
109.317469,0.078,-9.716,2.469
109.327174,0.039,-9.755,2.462
109.336879,0.078,-9.723,2.508
109.346584,0.078,-9.716,2.469
109.356289,0.078,-9.755,2.462
109.365994,0.078,-9.748,2.424
109.375699,0.039,-9.8,2.494
109.385404,0.039,-9.793,2.455
109.395109,0.039,-9.793,2.455
109.404814,0.039,-9.755,2.462
109.414519,0.039,-9.793,2.455
109.424224,0.039,-9.839,2.487
109.433929,0,-9.839,2.487
109.443634,0.039,-9.762,2.501
109.453334,0,-9.762,2.501
109.463034,0,-9.762,2.501
109.472734,0.039,-9.793,2.455
109.482434,0,-9.825,2.41
109.492134,0.039,-9.825,2.41
109.501834,0.039,-9.787,2.417
109.511534,0.039,-9.793,2.455
109.521234,0.039,-9.8,2.494
109.530934,0.039,-9.8,2.494
109.540634,0.078,-9.768,2.54
109.550334,0.039,-9.762,2.501
109.560034,0,-9.768,2.54
109.569734,0,-9.73,2.546
109.579434,0,-9.73,2.546
109.589124,0,-9.768,2.54
109.598814,0.039,-9.768,2.54
109.608504,0,-9.762,2.501
109.618194,0.039,-9.8,2.494
109.627884,0,-9.8,2.494
109.637574,0,-9.762,2.501
109.647264,0,-9.8,2.494
109.656954,0.039,-9.793,2.455
109.666644,0.039,-9.793,2.455
109.676334,0,-9.793,2.455
109.686024,0,-9.793,2.455
109.695714,0,-9.8,2.494
109.705404,0.039,-9.8,2.494
109.715094,0.039,-9.832,2.449
109.724799,0.118,-9.864,2.403
109.734504,0.235,-9.857,2.365
109.744209,0.196,-9.909,2.435
109.753914,0.196,-9.941,2.39
109.763619,0.196,-9.987,2.421
109.773324,0.157,-9.941,2.39
109.783029,0.118,-9.941,2.39
109.792734,0.078,-9.941,2.39
109.802439,0.039,-9.941,2.39
109.812144,-0.039,-9.934,2.351
109.821849,-0.078,-9.889,2.319
109.831554,-0.118,-9.896,2.358
109.841259,-0.157,-9.889,2.319
109.850951,-0.196,-9.85,2.326
109.860643,-0.275,-9.798,2.256
109.870335,-0.314,-9.798,2.256
109.880027,-0.314,-9.805,2.294
109.889719,-0.314,-9.759,2.262
109.899411,-0.353,-9.714,2.231
109.909103,-0.314,-9.714,2.231
109.918795,-0.314,-9.668,2.199
109.928487,-0.314,-9.637,2.244
109.938179,-0.235,-9.643,2.283
109.947871,-0.275,-9.643,2.283
109.957563,-0.235,-9.65,2.321
109.967255,-0.235,-9.618,2.367
109.976947,-0.196,-9.664,2.399
109.986649,-0.157,-9.657,2.36
109.996351,-0.196,-9.782,2.617
110.006053,-0.157,-9.821,2.61
110.015755,-0.118,-9.846,2.526
110.025457,-0.118,-9.852,2.565
110.035159,-0.078,-9.937,2.59
110.044861,-0.118,-9.989,2.66
110.054563,-0.078,-9.912,2.674
110.064265,-0.078,-9.88,2.719
110.073967,-0.078,-9.925,2.751
110.083669,-0.078,-9.893,2.796
110.093371,-0.078,-9.9,2.835
110.103073,-0.118,-9.868,2.88
110.112761,-0.157,-9.85,3.003
110.122449,-0.118,-9.882,2.958
110.132137,-0.039,-9.882,2.958
110.141825,-0.078,-9.882,2.958
110.151513,-0.078,-9.752,2.901
110.161201,-0.118,-9.662,2.837
110.170889,-0.078,-9.584,2.851
110.180577,-0.118,-9.552,2.896
110.190265,-0.118,-9.546,2.858
110.199953,-0.078,-9.462,2.833
110.209641,-0.078,-9.468,2.871
110.219329,-0.078,-9.475,2.91
110.229017,-0.078,-9.475,2.91
110.238705,-0.039,-9.514,2.903
110.248401,0,-9.514,2.903
110.258097,0.078,-9.546,2.858
110.267793,0.078,-9.546,2.858
110.277489,0.039,-9.584,2.851
110.287185,0.078,-9.598,2.928
110.296881,0.118,-9.591,2.889
110.306577,0.157,-9.637,2.921
110.316273,0.196,-9.637,2.921
110.325969,0.235,-9.643,2.96
110.335665,0.275,-9.637,2.921
110.345361,0.314,-9.682,2.953
110.355057,0.314,-9.682,2.953
110.364753,0.392,-9.682,2.953
110.374434,0.392,-9.675,2.914
110.384115,0.431,-9.682,2.953
110.393796,0.51,-9.682,2.953
110.403477,0.628,-9.696,3.03
110.413158,0.588,-9.696,3.03
110.422839,0.588,-9.727,2.985
110.43252,0.628,-9.734,3.024
110.442201,0.628,-9.689,2.992
110.451882,0.667,-9.682,2.953
110.461563,0.667,-9.643,2.96
110.471244,0.706,-9.605,2.967
110.480925,0.706,-9.598,2.928
110.490606,0.785,-9.605,2.967
110.500287,0.785,-9.605,2.967
110.509947,0.824,-9.605,2.967
110.519607,0.863,-9.598,2.928
110.529267,0.902,-9.623,2.844
110.538927,0.902,-9.668,2.876
110.548587,0.902,-9.746,2.862
110.558247,0.902,-9.83,2.887
110.567907,0.863,-9.862,2.842
110.577567,0.902,-9.862,2.842
110.587227,0.941,-9.809,2.771
110.596887,0.941,-9.771,2.778
110.606547,0.981,-9.725,2.746
110.616207,0.981,-9.764,2.74
110.625867,0.981,-9.718,2.708
110.635527,1.02,-9.75,2.662
110.645187,1.02,-9.712,2.669
110.654815,1.02,-9.68,2.715
110.664443,1.059,-9.666,2.637
110.674071,1.059,-9.621,2.605
110.683699,1.059,-9.621,2.605
110.693327,1.02,-9.614,2.567
110.702955,1.02,-9.646,2.521
110.712583,1.059,-9.614,2.567
110.722211,1.098,-9.607,2.528
110.731839,1.138,-9.562,2.496
110.741467,1.098,-9.632,2.444
110.751095,1.138,-9.593,2.451
110.760723,1.098,-9.625,2.405
110.770351,1.098,-9.612,2.328
110.779933,1.177,-9.643,2.283
110.789515,1.177,-9.682,2.276
110.799097,1.138,-9.65,2.321
110.808679,1.177,-9.643,2.283
110.818261,1.216,-9.637,2.244
110.827843,1.177,-9.553,2.219
110.837425,1.177,-9.521,2.265
110.847007,1.177,-9.559,2.258
110.856589,1.177,-9.598,2.251
110.866171,1.177,-9.553,2.219
110.875753,1.216,-9.553,2.219
110.885335,1.255,-9.63,2.206
110.894917,1.294,-9.637,2.244
110.904499,1.255,-9.675,2.237
110.914055,1.294,-9.637,2.244
110.923611,1.255,-9.675,2.237
110.933167,1.216,-9.675,2.237
110.942723,1.216,-9.675,2.237
110.952279,1.216,-9.759,2.262
110.961835,1.216,-9.837,2.249
110.971391,1.177,-9.907,2.196
110.980947,1.177,-9.868,2.203
110.990503,1.177,-9.83,2.21
111.000059,1.138,-9.784,2.178
111.009615,1.098,-9.746,2.185
111.019171,1.098,-9.746,2.185
111.028727,1.059,-9.7,2.153
111.038283,1.098,-9.7,2.153
111.047845,1.098,-9.7,2.153
111.057407,1.059,-9.714,2.231
111.066969,1.098,-9.7,2.153
111.076531,1.138,-9.648,2.083
111.086093,1.216,-9.718,2.031
111.095655,1.216,-9.725,2.069
111.105217,1.216,-9.687,2.076
111.114779,1.255,-9.596,2.012
111.124341,1.255,-9.603,2.051
111.133903,1.216,-9.603,2.051
111.143465,1.216,-9.68,2.037
111.153027,1.177,-9.764,2.062
111.162589,1.177,-9.757,2.024
111.172143,1.098,-9.757,2.024
111.181697,1.098,-9.764,2.062
111.191251,1.098,-9.816,2.133
111.200805,1.098,-9.771,2.101
111.210359,1.138,-9.764,2.062
111.219913,1.177,-9.796,2.017
111.229467,1.138,-9.687,2.076
111.239021,1.216,-9.648,2.083
111.248575,1.216,-9.616,2.128
111.258129,1.216,-9.609,2.09
111.267683,1.255,-9.648,2.083
111.277237,1.294,-9.687,2.076
111.286791,1.334,-9.718,2.031
111.296345,1.373,-9.803,2.056
111.305907,1.412,-9.88,2.042
111.315469,1.373,-9.887,2.081
111.325031,1.373,-9.88,2.042
111.334593,1.412,-9.873,2.003
111.344155,1.491,-9.905,1.958
111.353717,1.491,-9.866,1.965
111.363279,1.491,-9.821,1.933
111.372841,1.491,-9.821,1.933
111.382403,1.491,-9.859,1.926
111.391965,1.53,-9.846,1.849
111.401527,1.53,-9.846,1.849
111.411089,1.569,-9.839,1.81
111.420651,1.569,-9.8,1.817
111.430213,1.608,-9.762,1.824
111.439767,1.648,-9.755,1.785
111.449321,1.687,-9.787,1.74
111.458875,1.765,-9.825,1.733
111.468429,1.765,-9.819,1.694
111.477983,1.804,-9.864,1.726
111.487537,1.804,-9.864,1.726
111.497091,1.804,-9.832,1.772
111.506645,1.844,-9.794,1.778
111.516199,1.844,-9.878,1.803
111.525753,1.922,-9.878,1.803
111.535307,1.922,-9.923,1.835
111.544861,1.922,-9.993,1.783
111.554415,1.961,-10.109,1.762
111.563969,2.001,-10.212,1.665
111.573554,2.157,-10.398,1.592
111.583139,2.354,-10.573,1.681
111.592724,2.55,-10.773,1.685
111.602309,2.707,-10.896,1.703
111.611894,2.785,-11.005,1.644
111.621479,2.667,-11.082,1.631
111.631064,2.589,-11.114,1.585
111.640649,2.471,-11.146,1.54
111.650234,2.432,-11.132,1.463
111.659819,2.393,-11.08,1.392
111.669404,2.314,-10.834,1.356
111.678989,2.197,-10.582,1.281
111.688574,2.04,-10.432,1.108
111.698202,1.961,-10.334,1.006
111.70783,1.961,-10.334,1.006
111.717458,1.726,-10.289,0.974
111.727086,1.53,-10.171,0.756
111.736714,1.412,-9.95,0.635
111.746342,1.334,-9.878,0.449
111.75597,1.294,-9.812,0.301
111.765598,1.294,-9.785,0.147
111.775226,1.294,-9.796,-0.015
111.784854,1.255,-9.737,-0.124
111.794482,1.216,-9.78,-0.33
111.80411,1.098,-9.869,-0.505
111.813738,1.02,-9.746,-0.524
111.823366,0.902,-9.623,-0.542
111.832972,0.745,-9.442,-0.669
111.842578,0.628,-9.471,-0.953
111.852184,0.706,-9.805,-1.092
111.86179,0.745,-9.689,-1.071
111.871396,0.667,-9.444,-1.108
111.881002,0.628,-9.128,-1.092
111.890608,0.549,-9.115,-1.169
111.900214,0.431,-9.339,-1.248
111.90982,0.353,-9.455,-1.269
111.919426,0.392,-9.558,-1.367
111.929032,0.353,-9.53,-1.521
111.938638,0.353,-9.542,-1.682
111.948244,0.471,-9.592,-1.851
111.95785,0.549,-9.701,-1.91
111.967456,0.51,-9.842,-2.014
111.97709,0.431,-9.785,-1.885
111.986724,0.353,-9.694,-1.948
111.996358,0.196,-9.758,-2.039
112.005992,0.118,-9.892,-2.182
112.015626,0.039,-10.071,-2.294
112.02526,-0.039,-10.019,-2.364
112.034894,-0.078,-9.896,-2.382
112.044528,-0.118,-9.767,-2.439
112.054162,-0.078,-9.715,-2.51
112.063796,-0.078,-9.637,-2.496
112.07343,-0.078,-9.574,-2.405
112.083064,-0.039,-9.58,-2.366
112.092698,0,-9.535,-2.398
112.102348,-0.039,-9.451,-2.423
112.111998,-0.039,-9.406,-2.455
112.121648,-0.118,-9.367,-2.448
112.131298,-0.196,-9.301,-2.596
112.140948,-0.196,-9.224,-2.582
112.150598,-0.235,-9.224,-2.582
112.160248,-0.235,-9.178,-2.614
112.169898,-0.196,-9.147,-2.569
112.179548,-0.196,-9.147,-2.569
112.189198,-0.157,-9.217,-2.621
112.198848,-0.118,-9.294,-2.635
112.208498,-0.039,-9.41,-2.655
112.218148,0,-9.403,-2.694
112.227798,-0.039,-9.358,-2.726
112.237441,-0.078,-9.396,-2.732
112.247084,-0.078,-9.351,-2.764
112.256727,-0.157,-9.312,-2.757
112.26637,-0.157,-9.326,-2.68
112.276013,-0.196,-9.287,-2.673
112.285656,-0.235,-9.203,-2.698
112.295299,-0.196,-9.228,-2.782
112.304942,-0.196,-9.222,-2.821
112.314585,-0.157,-9.299,-2.835
112.324228,-0.157,-9.351,-2.764
112.333871,-0.196,-9.435,-2.739
112.343514,-0.196,-9.449,-2.662
112.353157,-0.235,-9.494,-2.63
112.3628,-0.275,-9.533,-2.637
112.372431,-0.275,-9.551,-2.76
112.382062,-0.314,-9.635,-2.735
112.391693,-0.314,-9.737,-2.832
112.401324,-0.275,-9.994,-2.957
112.410955,-0.314,-10.149,-2.984
112.420586,-0.314,-10.142,-3.023
112.430217,-0.353,-10.096,-3.055
112.439848,-0.431,-10.167,-3.107
112.449479,-0.51,-10.212,-3.075
112.45911,-0.588,-10.219,-3.037
112.468741,-0.628,-10.38,-3.025
112.478372,-0.785,-10.746,-3.209
112.488003,-0.902,-11.164,-3.323
112.497634,-0.941,-11.178,-3.246
112.507259,-1.059,-11.069,-3.187
112.516884,-1.216,-10.935,-3.043
112.526509,-1.373,-10.976,-2.812
112.536134,-1.412,-11.08,-2.671
112.545759,-1.491,-10.855,-2.591
112.555384,-1.53,-10.514,-2.491
112.565009,-1.569,-10.508,-2.53
112.574634,-1.687,-10.38,-2.348
112.584259,-1.844,-10.292,-2.173
112.593884,-1.922,-10.003,-2.003
112.603509,-2.001,-9.555,-1.605
112.613134,-2.118,-9.414,-1.501
112.622759,-2.118,-8.933,-1.296
112.632384,-2.157,-8.612,-1.08
112.642028,-2.118,-8.483,-1.137
112.651672,-2.157,-8.637,-1.165
112.661316,-2.118,-9.094,-1.285
112.67096,-2.079,-9.176,-1.498
112.680604,-2.118,-9.303,-1.68
112.690248,-2.118,-9.29,-1.757
112.699892,-2.157,-9.405,-1.778
112.709536,-2.197,-9.392,-1.855
112.71918,-2.157,-9.494,-1.953
112.728824,-2.118,-9.635,-2.057
112.738468,-2.118,-9.821,-2.13
112.748112,-2.118,-10.001,-2.241
112.757756,-2.157,-10.18,-2.353
112.767411,-2.197,-10.053,-2.171
112.777066,-2.275,-10.065,-2.332
112.786721,-2.275,-9.751,-2.078
112.796376,-2.314,-9.755,-2.278
112.806031,-2.157,-9.455,-1.946
112.815686,-2.079,-9.351,-2.087
112.825341,-2.04,-9.319,-2.042
112.834996,-1.883,-9.203,-2.021
112.844651,-1.804,-9.274,-2.073
112.854306,-1.765,-9.126,-2.007
112.863961,-1.648,-8.99,-2.103
112.873616,-1.608,-8.881,-2.044
112.883271,-1.53,-8.783,-2.146
112.892926,-1.491,-8.622,-2.158
112.902609,-1.491,-8.608,-2.235
112.912292,-1.451,-8.517,-2.298
112.921975,-1.373,-8.388,-2.355
112.931658,-1.294,-8.342,-2.387
112.941341,-1.255,-8.367,-2.471
112.951024,-1.138,-8.578,-2.628
112.960707,-1.177,-8.99,-2.78
112.97039,-1.177,-9.015,-2.864
112.980073,-1.216,-8.912,-2.766
112.989756,-1.294,-8.924,-2.928
112.999439,-1.373,-9.258,-3.066
113.009122,-1.451,-9.553,-3.198
113.018805,-1.53,-9.656,-3.296
113.028488,-1.569,-9.687,-3.341
113.038176,-1.53,-9.649,-3.334
113.047864,-1.53,-9.617,-3.289
113.057552,-1.53,-9.822,-3.484
113.06724,-1.451,-10.201,-3.591
113.076928,-1.373,-10.169,-3.546
113.086616,-1.255,-10.746,-3.886
113.096304,-1.216,-11.171,-3.961
113.105992,-1.098,-10.615,-3.505
113.11568,-0.902,-9.74,-3.271
113.125368,-0.863,-9.649,-3.334
113.135056,-0.706,-10.074,-3.409
113.144744,-0.549,-10.596,-3.382
113.154432,-0.314,-10.944,-3.443
113.16412,-0.157,-11.046,-3.541
113.173835,0.039,-11.06,-3.464
113.18355,0.235,-10.944,-3.443
113.193265,0.431,-10.803,-3.339
113.20298,0.628,-10.771,-3.293
113.212695,0.785,-10.792,-3.177
113.22241,0.902,-10.778,-3.255
113.232125,1.02,-10.265,-3.005
113.24184,1.059,-9.896,-3.059
113.251555,1.177,-9.781,-3.039
113.26127,1.216,-9.858,-3.053
113.270985,1.334,-9.735,-3.071
113.2807,1.334,-9.742,-3.032
113.290415,1.451,-9.549,-2.998
113.300144,1.491,-9.612,-3.089
113.309873,1.53,-9.606,-3.128
113.319602,1.53,-9.717,-2.948
113.329331,1.765,-9.594,-2.966
113.33906,1.648,-9.356,-2.964
113.348789,1.569,-9.067,-2.794
113.358518,1.491,-8.951,-2.773
113.368247,1.373,-9.081,-2.716
113.377976,1.216,-9.087,-2.678
113.387705,1.098,-8.908,-2.566
113.397434,0.941,-8.637,-2.519
113.407163,0.824,-8.522,-2.498
113.416892,0.667,-8.592,-2.551
113.426621,0.588,-8.694,-2.648
113.436343,0.431,-8.803,-2.707
113.446065,0.392,-8.778,-2.623
113.455787,0.353,-8.617,-2.635
113.465509,0.275,-8.553,-2.544
113.475231,0.235,-8.599,-2.512
113.484953,0.196,-8.683,-2.487
113.494675,0.157,-8.837,-2.514
113.504397,0.157,-8.915,-2.528
113.514119,0.118,-8.908,-2.566
113.523841,0.157,-8.933,-2.651
113.533563,0.157,-8.997,-2.741
113.543285,0.196,-9.06,-2.832
113.553007,0.157,-9.092,-2.878
113.562729,0.157,-9.033,-2.987
113.572481,0.157,-9.038,-3.187
113.582233,0.118,-9.056,-3.31
113.591985,0.157,-9.228,-3.459
113.601737,0.157,-9.285,-3.589
113.611489,0.078,-9.317,-3.634
113.621241,0.039,-9.349,-3.68
113.630993,0.039,-9.413,-3.771
113.640745,-0.078,-9.547,-3.914
113.650497,-0.196,-9.965,-4.027
113.660249,-0.275,-10.267,-4.121
113.670001,-0.314,-10.46,-4.155
113.679753,-0.314,-10.172,-3.984
113.689505,-0.275,-9.985,-3.912
113.699279,-0.275,-10.172,-3.984
113.709053,-0.235,-10.694,-3.957
113.718827,-0.235,-11.017,-3.934
113.728601,-0.275,-11.428,-4.086
113.738375,-0.275,-12.071,-4.279
113.748149,-0.314,-12.433,-4.263
113.757923,-0.314,-12.323,-4.204
113.767697,-0.392,-11.88,-4.007
113.777471,-0.51,-11.174,-3.723
113.787245,-0.549,-10.653,-3.512
113.797019,-0.628,-10.119,-3.378
113.806793,-0.745,-9.644,-3.134
113.816567,-0.785,-9.162,-2.93
113.826341,-0.941,-8.713,-2.771
113.836107,-1.02,-8.281,-2.735
113.845873,-1.098,-8.101,-2.623
113.855639,-1.216,-7.742,-2.401
113.865405,-1.294,-7.306,-2.165
113.875171,-1.373,-6.965,-2.065
113.884937,-1.451,-7.151,-2.137
113.894703,-1.53,-7.744,-2.162
113.904469,-1.569,-8.447,-2.246
113.914235,-1.648,-8.769,-2.223
113.924001,-1.726,-8.801,-2.269
113.933767,-1.844,-8.815,-2.192
113.943533,-1.883,-8.951,-2.096
113.953299,-1.922,-9.312,-2.08
113.963065,-1.961,-9.705,-2.11
113.972811,-1.922,-10.06,-2.132
113.982557,-1.922,-10.389,-2.071
113.992303,-1.961,-10.642,-1.996
114.002049,-1.961,-10.753,-1.816
114.011795,-2.04,-10.703,-1.648
114.021541,-2.079,-10.601,-1.551
114.031287,-2.079,-10.544,-1.421
114.041033,-2.079,-10.41,-1.278
114.050779,-2.079,-10.23,-1.167
114.060525,-2.001,-10.044,-1.094
114.070271,-1.922,-9.851,-1.06
114.080017,-1.844,-9.658,-1.026
114.089763,-1.765,-9.503,-0.999
114.099509,-1.687,-9.419,-1.024
114.109237,-1.648,-9.349,-0.971
114.118965,-1.569,-9.233,-0.951
114.128693,-1.53,-9.142,-1.014
114.138421,-1.451,-8.98,-1.026
114.148149,-1.412,-8.935,-1.058
114.157877,-1.412,-8.974,-1.064
114.167605,-1.373,-9.089,-1.085
114.177333,-1.334,-9.167,-1.099
114.187061,-1.373,-9.378,-1.255
114.196789,-1.334,-9.835,-1.376
114.206517,-1.412,-9.508,-1.198
114.216245,-1.491,-9.23,-1.189
114.225973,-1.569,-9.371,-1.294
114.235701,-1.608,-9.726,-1.317
114.245431,-1.648,-10.017,-1.248
114.255161,-1.804,-10.06,-1.455
114.264891,-1.844,-10.162,-1.553
114.274621,-1.922,-10.092,-1.501
114.284351,-1.922,-10.021,-1.448
114.294081,-1.922,-10.06,-1.455
114.303811,-1.961,-10.053,-1.494
114.313541,-1.961,-10.362,-1.548
114.323271,-1.922,-10.305,-1.419
114.333001,-1.844,-9.933,-1.273
114.342731,-1.726,-9.624,-1.219
114.352461,-1.569,-9.894,-1.267
114.362191,-1.491,-10.512,-1.376
114.371906,-1.373,-11.187,-1.614
114.381621,-1.334,-11.123,-1.523
114.391336,-1.138,-10.473,-1.369
114.401051,-1.098,-9.971,-1.28
114.410766,-1.02,-9.964,-1.319
114.420481,-0.981,-10.196,-1.36
114.430196,-0.902,-10.66,-1.441
114.439911,-0.902,-10.962,-1.535
114.449626,-0.785,-11.187,-1.614
114.459341,-0.745,-11.251,-1.705
114.469056,-0.628,-11.289,-1.712
114.478771,-0.51,-11.251,-1.705
114.488486,-0.471,-11.057,-1.671
114.498201,-0.314,-10.903,-1.644
114.507896,-0.078,-10.896,-1.682
114.517591,0.039,-10.773,-1.7
114.527286,0.196,-10.682,-1.764
114.536981,0.353,-10.135,-1.707
114.546676,0.51,-10.062,-1.894
114.556371,0.549,-10.203,-1.998
114.566066,0.628,-10.196,-2.037
114.575761,0.706,-9.778,-1.923
114.585456,0.785,-9.48,-2.03
114.595151,0.863,-9.744,-2.116
114.604846,0.902,-9.937,-2.151
114.614541,1.02,-9.937,-2.151
114.624236,1.098,-9.551,-2.082
114.633931,1.177,-9.165,-2.014
114.643633,1.294,-9.012,-1.748
114.653335,1.373,-8.985,-1.903
114.663037,1.294,-9.044,-1.794
114.672739,1.177,-9.096,-1.723
114.682441,1.098,-9.103,-1.685
114.692143,1.02,-9.149,-1.653
114.701845,0.941,-9.124,-1.569
114.711547,0.785,-9.169,-1.537
114.721249,0.706,-9.24,-1.589
114.730951,0.588,-9.33,-1.526
114.740653,0.549,-9.299,-1.48
114.750355,0.431,-9.253,-1.512
114.760057,0.353,-9.176,-1.498
114.769755,0.314,-9.215,-1.505
114.779453,0.196,-9.31,-1.642
114.789151,0.039,-9.29,-1.757
114.798849,0,-9.308,-1.88
114.808547,-0.078,-9.333,-1.964
114.818245,-0.157,-9.365,-2.01
114.827943,-0.196,-9.449,-1.985
114.837641,-0.196,-9.371,-1.971
114.847339,-0.196,-9.294,-1.957
114.857037,-0.157,-9.333,-1.964
114.866735,-0.196,-9.417,-1.939
114.876433,-0.196,-9.617,-1.935
114.886131,-0.275,-9.81,-1.969
114.895829,-0.353,-9.946,-1.873
114.905536,-0.392,-9.992,-1.841
114.915243,-0.471,-10.128,-1.746
114.92495,-0.628,-10.198,-1.798
114.934657,-0.745,-10.514,-1.814
114.944364,-0.745,-10.753,-1.816
114.954071,-0.785,-10.889,-1.721
114.963778,-0.824,-10.755,-1.578
114.973485,-0.863,-10.685,-1.526
114.983192,-0.863,-10.846,-1.514
114.992899,-0.824,-11.176,-1.453
115.002606,-0.824,-11.46,-1.423
115.012313,-0.863,-11.698,-1.425
115.02202,-0.941,-11.969,-1.473
115.031727,-1.059,-12.457,-1.639
115.041419,-1.255,-12.855,-1.868
115.051111,-1.294,-12.964,-1.927
115.060803,-1.373,-12.584,-1.821
115.070495,-1.451,-12.005,-1.718
115.080187,-1.451,-11.394,-1.571
115.089879,-1.451,-10.789,-1.385
115.099571,-1.451,-10.185,-1.198
115.109263,-1.412,-9.503,-0.999
115.118955,-1.373,-9.11,-0.969
115.128647,-1.412,-8.783,-0.792
115.138339,-1.451,-8.237,-0.496
115.148031,-1.491,-7.833,-0.306
115.157723,-1.491,-7.819,-0.383
115.167415,-1.53,-8.367,-0.44
115.177115,-1.491,-8.996,-0.71
115.186815,-1.608,-9.46,-0.792
115.196515,-1.648,-9.453,-0.83
115.206215,-1.726,-9.319,-0.687
115.215915,-1.726,-9.421,-0.785
115.225615,-1.726,-9.614,-0.819
115.235315,-1.648,-9.776,-0.808
115.245015,-1.608,-10.032,-0.933
115.254715,-1.569,-10.373,-1.032
115.264415,-1.53,-10.58,-0.989
115.274115,-1.569,-10.503,-0.976
115.283815,-1.608,-10.426,-0.962
115.293515,-1.648,-10.426,-0.962
115.303224,-1.765,-10.317,-0.903
115.312933,-1.844,-10.201,-0.883
115.322642,-1.922,-9.976,-0.803
115.332351,-2.001,-9.66,-0.787
115.34206,-1.961,-9.389,-0.739
115.351769,-1.961,-9.144,-0.776
115.361478,-1.922,-8.983,-0.787
115.371187,-1.883,-8.853,-0.844
115.380896,-1.844,-8.815,-0.837
115.390605,-1.804,-8.815,-0.837
115.400314,-1.765,-8.833,-0.96
115.410023,-1.765,-8.91,-0.974
115.419732,-1.687,-8.987,-0.987
115.429441,-1.687,-8.826,-0.999
115.439132,-1.608,-8.787,-0.992
115.448823,-1.608,-8.749,-0.985
115.458514,-1.53,-9.03,-1.194
115.468205,-1.53,-9.269,-1.196
115.477896,-1.648,-9.044,-1.117
115.487587,-1.687,-8.869,-1.205
115.497278,-1.765,-8.733,-1.301
115.506969,-1.765,-9.08,-1.362
115.51666,-1.804,-9.351,-1.41
115.526351,-1.804,-9.383,-1.455
115.536042,-1.765,-9.46,-1.469
115.545733,-1.765,-9.601,-1.573
115.555424,-1.804,-9.924,-1.551
115.565115,-1.726,-10.117,-1.585
115.57478,-1.687,-10.348,-1.626
115.584445,-1.608,-10.826,-1.63
115.59411,-1.569,-10.801,-1.546
115.603775,-1.451,-10.923,-1.528
115.61344,-1.373,-11.078,-1.555
115.623105,-1.294,-11.496,-1.669
115.63277,-1.255,-12.214,-2.114
115.642435,-1.294,-12.587,-2.259
115.6521,-1.138,-12.473,-2
115.661765,-0.941,-12.175,-2.107
115.67143,-0.863,-11.912,-2.021
115.681095,-0.785,-11.616,-1.889
115.69076,-0.628,-11.276,-1.789
115.700425,-0.588,-11.044,-1.748
115.710062,-0.51,-10.882,-1.76
115.719699,-0.431,-10.794,-1.585
115.729336,-0.392,-10.569,-1.505
115.738973,-0.235,-10.235,-1.367
115.74861,-0.118,-10.112,-1.385
115.758247,0.039,-9.978,-1.242
115.767884,0.157,-9.844,-1.098
115.777521,0.235,-10.119,-1.346
115.787158,0.392,-9.698,-0.794
115.796795,0.549,-9.787,-0.969
115.806432,0.431,-10.085,-1.539
115.816069,0.314,-10.553,-1.821
115.825706,0.353,-10.746,-1.855
115.835343,0.431,-10.489,-1.73
115.844978,0.549,-10.067,-1.417
115.854613,0.549,-9.371,-1.294
115.864248,0.667,-9.126,-1.33
115.873883,0.745,-9.055,-1.278
115.883518,0.824,-9.112,-1.408
115.893153,0.824,-9.105,-1.446
115.902788,0.824,-8.99,-1.426
115.912423,0.745,-9.103,-1.685
115.922058,0.667,-8.994,-1.626
115.931693,0.549,-8.942,-1.696
115.941328,0.431,-8.781,-1.708
115.950963,0.275,-8.626,-1.68
115.960598,0.235,-8.619,-1.719
115.970257,0.196,-8.535,-1.744
115.979916,0.118,-8.387,-1.678
115.989575,0.078,-8.399,-1.839
115.999234,0.039,-8.419,-1.724
116.008893,0.039,-8.599,-1.835
116.018552,0,-8.619,-1.719
116.028211,-0.078,-8.606,-1.796
116.03787,-0.039,-8.497,-1.737
116.047529,-0.157,-8.522,-1.821
116.057188,-0.196,-8.651,-1.764
116.066847,-0.196,-8.76,-1.823
116.076506,-0.235,-9.217,-1.944
116.086165,-0.235,-9.533,-1.96
116.095839,-0.235,-9.939,-1.912
116.105513,-0.196,-10.358,-2.025
116.115187,-0.157,-10.871,-2.275
116.124861,-0.157,-11.08,-1.994
116.134535,-0.275,-10.962,-2.212
116.144209,-0.275,-10.635,-2.035
116.153883,-0.314,-10.505,-2.091
116.163557,-0.51,-10.576,-2.144
116.173231,-0.628,-10.803,-1.985
116.182905,-0.745,-10.869,-1.837
116.192579,-0.863,-10.914,-1.805
116.202253,-0.902,-11.139,-1.884
116.211927,-0.981,-11.391,-1.809
116.221601,-1.059,-11.746,-1.832
116.231275,-1.138,-12.062,-1.848
116.240953,-1.294,-12.557,-1.975
116.250631,-1.451,-12.794,-2.216
116.260309,-1.491,-13.214,-2.091
116.269987,-1.608,-13.503,-2.261
116.279665,-1.687,-12.655,-1.873
116.289343,-1.648,-11.344,-1.403
116.299021,-1.569,-10.507,-1.176
116.308699,-1.569,-9.73,-0.839
116.318377,-1.569,-9.178,-0.583
116.328055,-1.53,-8.78,-0.353
116.337733,-1.491,-8.844,-0.444
116.347411,-1.491,-9.196,-0.705
116.357089,-1.53,-9.628,-0.742
116.366793,-1.569,-9.653,-0.826
116.376497,-1.569,-9.594,-0.935
116.386201,-1.53,-9.451,-1.069
116.395905,-1.53,-9.508,-1.198
116.405609,-1.608,-9.744,-1.439
116.415313,-1.648,-10.064,-1.655
116.425017,-1.726,-10.155,-1.591
116.434721,-1.687,-9.808,-1.53
116.444425,-1.608,-9.428,-1.423
116.454129,-1.569,-9.242,-1.351
116.463833,-1.53,-9.262,-1.235
116.473537,-1.451,-9.321,-1.126
116.483241,-1.451,-9.335,-1.049
116.492951,-1.569,-8.937,-0.819
116.502661,-1.451,-8.91,-0.974
116.512371,-1.53,-9.142,-1.014
116.522081,-1.491,-9.26,-0.796
116.531791,-1.491,-9.208,-0.867
116.541501,-1.491,-9.039,-0.917
116.551211,-1.451,-9.137,-0.814
116.560921,-1.412,-9.214,-0.828
116.570631,-1.412,-9.174,-1.06
116.580341,-1.491,-9.115,-1.169
116.590051,-1.53,-9.076,-1.162
116.599761,-1.53,-9.037,-1.155
116.609471,-1.608,-9.024,-1.233
116.619181,-1.687,-9.151,-1.414
116.628909,-1.844,-9.028,-1.433
116.638637,-1.844,-8.894,-1.289
116.648365,-1.844,-8.824,-1.237
116.658093,-1.844,-8.858,-1.044
116.667821,-1.844,-9.146,-1.214
116.677549,-1.844,-9.21,-1.305
116.687277,-1.844,-9.449,-1.308
116.697005,-1.883,-9.617,-1.258
116.706733,-1.883,-9.771,-1.285
116.716461,-1.922,-9.958,-1.357
116.726189,-1.883,-10.035,-1.371
116.735917,-1.883,-10.042,-1.332
116.745645,-1.804,-9.964,-1.319
116.755362,-1.804,-10.221,-1.444
116.765079,-1.883,-10.594,-1.589
116.774796,-1.844,-10.998,-1.78
116.784513,-1.883,-11.051,-1.71
116.79423,-1.804,-10.998,-1.78
116.803947,-1.687,-11.153,-1.807
116.813664,-1.648,-11.494,-1.907
116.823381,-1.648,-11.919,-1.982
116.833098,-1.687,-12.112,-2.016
116.842815,-1.648,-11.605,-1.728
116.852532,-1.491,-11.114,-1.8
116.862249,-1.334,-11.248,-1.944
116.871966,-1.177,-11.944,-2.066
116.881683,-1.02,-12.375,-2.102
116.891417,-0.902,-12.348,-2.257
116.901151,-0.706,-12.296,-2.327
116.910885,-0.628,-11.782,-2.078
116.920619,-0.471,-11.169,-2.169
116.930353,-0.353,-10.378,-1.91
116.940087,-0.196,-9.746,-1.878
116.949821,-0.118,-9.68,-2.026
116.959555,0,-9.551,-2.082
116.969289,0.078,-9.551,-2.082
116.979023,0.118,-9.426,-2.339
116.988757,0.118,-9.258,-2.389
116.998491,0.118,-9.353,-2.526
117.008225,0.078,-9.14,-2.607
117.017966,0,-8.887,-2.682
117.027707,0.118,-8.635,-2.757
117.037448,0.235,-8.572,-2.667
117.047189,0.314,-8.617,-2.635
117.05693,0.353,-8.572,-2.667
117.066671,0.431,-8.617,-2.635
117.076412,0.471,-8.547,-2.582
117.086153,0.392,-8.508,-2.576
117.095894,0.275,-8.424,-2.601
117.105635,0.157,-8.347,-2.587
117.115376,0.118,-8.276,-2.535
117.125117,0.157,-8.199,-2.521
117.134858,0.157,-8.367,-2.471
117.144599,0.157,-8.458,-2.407
117.15433,0.196,-8.562,-2.267
117.164061,0.118,-8.587,-2.351
117.173792,0,-8.581,-2.389
117.183523,-0.078,-8.585,-2.589
117.193254,-0.235,-8.385,-2.594
117.202985,-0.392,-8.231,-2.567
117.212716,-0.471,-8.372,-2.671
117.222447,-0.549,-8.526,-2.698
117.232178,-0.549,-8.656,-2.642
117.241909,-0.471,-8.881,-2.721
117.25164,-0.314,-9.06,-2.832
117.261371,-0.157,-9.047,-2.91
117.271102,-0.118,-9.181,-3.053
117.280833,-0.118,-9.726,-3.348
117.290539,-0.196,-9.978,-3.273
117.300245,-0.196,-10.221,-3.475
117.309951,-0.235,-10.626,-3.666
117.319657,-0.275,-10.833,-3.623
117.329363,-0.196,-10.903,-3.675
117.339069,-0.353,-10.787,-3.655
117.348775,-0.588,-10.601,-3.582
117.358481,-0.785,-10.967,-3.766
117.368187,-0.941,-11.199,-3.807
117.377893,-1.098,-10.987,-3.65
117.387599,-1.177,-10.742,-3.687
117.397305,-1.138,-10.774,-3.732
117.407011,-1.177,-10.903,-3.675
117.416717,-1.177,-10.949,-3.643
117.426404,-1.177,-11.258,-3.698
117.436091,-1.373,-11.939,-3.898
117.445778,-1.53,-12.589,-4.052
117.455465,-1.648,-12.353,-3.811
117.465152,-1.765,-11.492,-3.5
117.474839,-1.804,-10.321,-3.134
117.484526,-1.804,-9.287,-2.673
117.494213,-1.765,-8.363,-2.271
117.5039,-1.804,-7.835,-2.099
117.513587,-1.804,-8.406,-2.478
117.523274,-1.961,-9.678,-2.941
117.532961,-2.157,-10.085,-2.894
117.542648,-2.197,-9.828,-2.769
117.552335,-2.314,-9.256,-2.628
117.562029,-2.432,-9.035,-2.748
117.571723,-2.55,-9.067,-2.794
117.581417,-2.589,-9.274,-2.751
117.591111,-2.55,-9.421,-2.816
117.600805,-2.471,-9.537,-2.837
117.610499,-2.432,-9.492,-2.869
117.620193,-2.393,-9.376,-2.848
117.629887,-2.314,-9.274,-2.751
117.639581,-2.236,-8.947,-2.573
117.649275,-2.079,-8.651,-2.442
117.658969,-1.922,-8.542,-2.382
117.668663,-1.726,-8.497,-2.414
117.678357,-1.569,-8.388,-2.355
117.688038,-1.412,-8.208,-2.244
117.697719,-1.373,-8.078,-2.301
117.7074,-1.412,-8.04,-2.294
117.717081,-1.412,-7.974,-2.442
117.726762,-1.491,-7.974,-2.442
117.736443,-1.491,-7.929,-2.473
117.746124,-1.491,-7.929,-2.473
117.755805,-1.451,-7.858,-2.421
117.765486,-1.373,-7.788,-2.369
117.775167,-1.451,-7.594,-2.335
117.784848,-1.412,-7.594,-2.335
117.794529,-1.412,-7.717,-2.317
117.80421,-1.491,-8.044,-2.494
117.813891,-1.53,-8.578,-2.628
117.823563,-1.608,-8.772,-2.662
117.833235,-1.608,-8.842,-2.714
117.842907,-1.569,-8.899,-2.844
117.852579,-1.491,-9.194,-2.975
117.862251,-1.412,-9.76,-3.155
117.871923,-1.412,-10.294,-3.289
117.881595,-1.373,-10.558,-3.375
117.891267,-1.334,-10.449,-3.316
117.900939,-1.255,-10.231,-3.198
