Time,GyroscopeX,GyroscopeY,GyroscopeZ
70.009549,-17.15,-19.908,10.919
70.020196,-14.84,-21.109,8.859
70.030843,-12.95,-23.084,7.16
70.04149,-12.53,-25.513,4.813
70.052137,-13.23,-27.209,1.528
70.062784,-13.79,-28.223,-1.991
70.073431,-15.19,-28.58,-5.608
70.084078,-18.06,-28.094,-9.574
70.094725,-21.42,-26.562,-13.426
70.105372,-23.94,-24.636,-16.285
70.116019,-26.04,-22.824,-18.098
70.126666,-27.23,-21.044,-18.922
70.137313,-28.91,-18.899,-19.396
70.14796,-30.45,-17.119,-19.011
70.158607,-31.64,-16.153,-17.633
70.169245,-30.8,-15.188,-15.046
70.179883,-28.14,-14.202,-12.171
70.190521,-24.22,-12.896,-9.098
70.201159,-20.86,-11.047,-6.284
70.211797,-19.39,-9.193,-3.896
70.222435,-17.64,-7.421,-2.659
70.233073,-15.82,-5.097,-1.325
70.243711,-14.91,-2.356,-0.344
70.254349,-14.56,-0.661,1.732
70.264987,-14.07,1.103,3.82
70.275625,-13.86,2.685,4.525
70.286263,-13.16,3.95,4.606
70.296901,-12.95,4.331,4.46
70.307584,-11.62,3.184,5.324
70.318267,-10.92,1.761,6.139
70.32895,-10.71,0.07,7.262
70.339633,-9.87,-1.678,7.096
70.350316,-8.61,-3.73,7.445
70.360999,-7.35,-5.153,8.261
70.371682,-7,-6.949,8.37
70.382365,-6.65,-8.741,8.054
70.393048,-4.83,-10.457,8.107
70.403731,-4.06,-11.422,7.937
70.414414,-4.48,-11.698,6.68
70.425097,-6.44,-12.067,4.341
70.435779,-9.31,-12.842,3.493
70.446461,-7.21,-13.34,7.528
70.457143,0,-13.457,9
70.467825,2.31,-12.619,4.243
70.478507,3.01,-11.135,-0.542
70.489189,7.7,-9.104,-3.596
70.499871,13.09,-8.991,-5.85
70.510553,17.92,-9.786,-9.402
70.521235,21.63,-11.032,-14.029
70.531917,24.5,-11.701,-18.696
70.542599,28.07,-11.223,-21.81
70.553281,31.01,-9.484,-24.418
70.563963,32.13,-7.319,-27.021
70.574644,32.41,-4.351,-28.133
70.585325,33.53,-1.302,-28.093
70.596006,34.65,0.961,-26.414
70.606687,35.7,1.477,-23.694
70.617368,36.89,0.837,-19.257
70.628049,37.45,-1.182,-12.647
70.63873,34.51,-2.657,-5.089
70.649411,28.35,-4.622,2.028
70.660092,20.51,-6.373,9.538
70.670773,10.64,-6.851,16.278
70.681454,0.77,-7.921,21.136
70.692135,-7.91,-9.968,24.684
70.70284,-14,-11.006,26.136
70.713545,-17.15,-11.533,25.901
70.72425,-17.43,-11.099,23.845
70.734955,-16.8,-9.121,20.284
70.74566,-14.84,-7.455,16.882
70.756365,-12.46,-6.133,13.419
70.76707,-9.73,-4.861,10.231
70.777775,-6.65,-4.938,8.654
70.78848,-4.2,-6.183,8.861
70.799185,-2.59,-8.388,9.68
70.80989,-0.42,-9.147,9.547
70.820595,0.77,-9.123,8.2
70.831301,0.63,-7.436,7.503
70.842007,-1.61,-6.795,6.692
70.852713,-5.11,-7.201,5.767
70.863419,-7,-7.314,5.605
70.874125,-6.58,-7.067,6.217
70.884831,-3.99,-6.937,7.093
70.895537,-0.21,-5.534,8.407
70.906243,4.48,-4.447,10.304
70.916949,9.38,-3.635,13.362
70.927655,11.97,-3.895,16.444
70.938361,11.69,-3.987,18.986
70.949067,8.4,-3.18,20.052
70.959773,9.38,-0.999,20.579
70.970499,7.63,0.529,15.944
70.981225,1.82,0.492,12.526
70.991951,-1.96,-0.274,12.035
71.002677,-6.16,-2.48,10.438
71.013403,-12.46,-6.04,10.876
71.024129,-14.98,-9.827,13.407
71.034855,-14.7,-13.213,13.663
71.045581,-14.7,-16.113,12.37
71.056307,-14.77,-17.869,10.639
71.067033,-13.02,-19.317,9.175
71.077759,-12.53,-20.651,7.874
71.088485,-12.6,-22.196,4.545
71.099233,-14.28,-24.095,0.798
71.109981,-15.89,-25.632,-2.174
71.120729,-15.19,-26.524,-5.175
71.131477,-13.44,-27.952,-7.559
71.142225,-11.83,-31.16,-7.911
71.152973,-9.87,-34.862,-8.279
71.163721,-7.28,-37.672,-10.481
71.174469,-3.29,-38.5,-14.252
71.185217,1.54,-37.657,-18.226
71.195965,7.42,-35.261,-22.139
71.206713,13.93,-32.594,-25.578
71.217461,21.77,-31.673,-26.767
71.228209,30.24,-32.318,-24.321
71.238996,38.92,-34.434,-20.785
71.249783,45.57,-37.094,-18.198
71.26057,49.7,-39.542,-16
71.271357,52.99,-41.861,-12.926
71.282144,56.84,-44.302,-9.162
71.292931,59.99,-46.288,-4.75
71.303718,61.32,-47.103,-0.131
71.314505,61.74,-47.098,4.276
71.325292,60.06,-44.88,7.013
71.336079,57.12,-42.58,9.693
71.346866,53.34,-40.475,12.268
71.357647,48.65,-38.581,14.023
71.368428,42.7,-37.592,14.056
71.379209,35.56,-37.219,12.345
71.38999,28.35,-36.842,10.207
71.400771,22.89,-36.348,7.807
71.411552,20.09,-34.722,5.037
71.422333,20.3,-31.033,0.641
71.433114,21.49,-26.334,-3.435
71.443895,21.7,-21.209,-7.507
71.454676,20.51,-16.242,-10.683
71.465457,17.43,-11.636,-13.424
71.476238,12.74,-7.038,-15.315
71.487019,9.66,-3.181,-15.417
71.497803,8.19,0.136,-14.476
71.508587,5.95,2.918,-12.92
71.519371,5.88,5.23,-10.309
71.530155,11.76,6.422,-4.98
71.540939,23.66,6.561,-0.123
71.551723,23.52,7.712,-2.621
71.562507,14.35,12.549,-10.297
71.573291,9.73,21.44,-18.396
71.584075,2.24,28.929,-26.601
71.594859,-6.3,32.026,-30.461
71.605643,-8.33,32.055,-27.4
71.616427,-5.67,32.733,-23.584
71.627226,-2.03,37.072,-22.393
71.638025,0.77,44.176,-22.775
71.648824,-0.35,50.871,-23.656
71.659623,-4.27,57.517,-24.261
71.670422,-8.89,64.596,-25.714
71.681221,-12.18,70.541,-27.58
71.69202,-14.07,72.998,-25.796
71.702819,-13.09,72.654,-22.231
71.713618,-12.11,70.883,-18.634
71.724417,-12.25,68.235,-14.908
71.735216,-13.58,64.254,-10.065
71.746015,-16.87,59.133,-5.211
71.756822,-21.42,53.258,-0.916
71.767629,-25.76,48.526,1.733
71.778436,-30.38,45.444,1.474
71.789243,-34.3,44.057,-0.335
71.80005,-35.84,43.781,-2.8
71.810857,-35.7,40.866,-2.39
71.821664,-34.09,34.228,0.989
71.832471,-31.64,26.561,4.968
71.843278,-30.24,21.083,4.997
71.854085,-29.75,19.124,1.595
71.864892,-28.49,19.066,-2.111
71.875699,-26.39,18.9,-3.989
71.886485,-24.29,16.722,-2.525
71.897271,-21,13.211,0.055
71.908057,-19.11,9.878,2.026
71.918843,-17.15,8.5,2.991
71.929629,-16.73,6.736,3.32
71.940415,-16.31,5.45,4.16
71.951201,-16.31,3.561,5.604
71.961987,-15.89,1.83,7.36
71.972773,-14.42,1.064,9.286
71.983559,-12.81,0.358,10.867
71.994345,-11.27,0.022,12.372
72.005131,-10.08,-0.651,14.172
72.015917,-10.15,-1.985,16.496
72.026686,-11.06,-4.28,18.224
72.037455,-12.39,-7.475,20.219
72.048224,-13.93,-10.276,22
72.058993,-14.21,-11.732,21.388
72.069762,-10.5,-12.008,21.339
72.080531,-4.2,-10.909,18.334
72.0913,-2.66,-10.646,14.827
72.102069,4.27,-9.475,13.825
72.112838,11.27,-8.384,11.671
72.123607,8.33,-8.814,8.468
72.134376,0.07,-10.469,8.176
72.145145,-7.77,-11.442,8.858
72.155867,-12.11,-12.038,8.61
72.166589,-10.99,-11.892,7.783
72.177311,-4.76,-10.931,8.379
72.188033,3.43,-9.151,8.764
72.198755,10.71,-7.253,8.885
72.209477,15.19,-6.118,8.091
72.220199,17.5,-5.931,7.839
72.230921,17.85,-5.854,7
72.241643,18.2,-5.364,6.233
72.252365,19.53,-4.894,5.179
72.263087,21.14,-4.947,3.464
72.273809,22.82,-5.125,1.655
72.284531,24.08,-5.126,-0.762
72.295241,24.36,-5.308,-3.353
72.305951,23.94,-5.512,-6.232
72.316661,22.68,-5.236,-8.6
72.327371,22.68,-5.265,-10.453
72.338081,23.17,-5.192,-12.075
72.348791,24.08,-5.436,-13.113
72.359501,23.8,-5.079,-13.121
72.370211,20.93,-4.681,-12.554
72.380921,16.31,-5.018,-11.049
72.391631,10.36,-5.707,-8.754
72.402341,4.48,-7.324,-5.627
72.413051,0,-8.82,-1.982
72.423717,-3.15,-9.185,0.086
72.434383,-5.46,-8.215,1.039
72.445049,-7.21,-6.63,1.319
72.455715,-7.56,-5.73,1.051
72.466381,-9.52,-5.657,0.637
72.477047,-12.53,-5.713,0.556
72.487713,-15.96,-6.277,0.528
72.498379,-18.76,-7.538,1.23
72.509045,-21.42,-8.503,2.268
72.519711,-22.54,-9.517,3.582
72.530377,-20.65,-10.011,4.774
72.541043,-18.83,-10.088,4.405
72.551709,-17.22,-9.78,3.464
72.562342,-15.54,-9.748,2.475
72.572975,-14.21,-9.399,2.11
72.583608,-14.28,-9.176,2.86
72.594241,-15.82,-9.168,3.217
72.604874,-17.92,-9.066,3.448
72.615507,-19.74,-7.866,3.091
72.62614,-19.46,-6.504,2.62
72.636773,-18.48,-4.833,2.417
72.647406,-17.36,-3.467,2.729
72.658039,-17.15,-2.789,2.92
72.668672,-18.55,-2.169,3.029
72.679305,-21.49,-1.22,2.486
72.689922,-25.76,-0.49,1.975
72.700539,-31.08,0.969,0.953
72.711156,-34.86,1.991,-0.004
72.721773,-35.28,3.203,-1.639
72.73239,-33.95,4.193,-1.606
72.743007,-33.18,4.497,-0.913
72.753624,-32.34,4.574,-0.544
72.764241,-33.25,4.781,-0.508
72.774858,-34.37,5.454,0.109
72.785475,-32.55,6.228,-0.252
72.796092,-32.69,6.942,-1.477
72.806709,-34.86,8.337,-2.937
72.817318,-25.69,12.452,-3.704
72.827927,-19.04,16.856,-6.908
72.838536,-26.46,16.981,-10.44
72.849145,-29.19,17.119,-10.416
72.859754,-24.85,18.327,-7.999
72.870363,-19.04,17.574,-4.933
72.880972,-13.16,14.253,-1.823
72.891581,-6.3,11.516,0.396
72.90219,0.56,11.293,0.854
72.912799,4.97,12.562,-0.699
72.923408,6.3,13.227,-2.857
72.934017,6.44,13.377,-4.11
72.944598,5.88,11.763,-3.825
72.955179,3.99,9.906,-2.163
72.96576,0.28,8.54,-0.058
72.976341,-4.69,6.954,0.871
72.986922,-9.59,5.827,0.814
72.997503,-13.37,5.243,0.498
73.008084,-15.89,4.692,0.401
73.018665,-17.08,2.32,1.76
73.029246,-17.71,-0.251,3.439
73.039827,-17.92,-1.289,2.474
73.050408,-17.85,-1.748,1.042
73.060989,-18.83,-0.896,-1.366
73.07157,-19.95,0.166,-4.164
73.082184,-20.51,0.879,-6.598
73.092798,-20.58,1.516,-6.983
73.103412,-20.09,1.909,-7.198
73.114026,-18.83,2.18,-7.932
73.12464,-16.45,3.085,-8.625
73.135254,-14.35,4.666,-10.337
73.145868,-12.39,7.273,-12.223
73.156482,-10.36,10.306,-14.105
73.167096,-9.52,13.018,-14.977
73.17771,-8.47,14.316,-13.469
73.188324,-8.47,14.037,-10.675
73.198944,-8.54,12.829,-7.049
73.209564,-10.29,11.937,-4.008
73.220184,-12.32,12.481,-3.059
73.230804,-13.23,14.168,-3.757
73.241424,-15.12,15.66,-3.352
73.252044,-16.8,15.64,-2.431
73.262664,-18.2,13.682,0.209
73.273284,-20.72,9.749,3.567
73.283904,-23.03,5.747,5.705
73.294524,-24.99,3.099,5.806
73.305144,-27.02,1.302,5.916
73.315764,-29.61,-0.466,5.462
73.326384,-32.69,-3.778,6.513
73.337025,-35.56,-9.856,10.346
73.347666,-38.64,-17.528,15.959
73.358307,-43.12,-25.033,19.824
73.368948,-48.51,-31.715,20.636
73.379589,-52.99,-37.161,18.468
73.39023,-53.83,-39.907,14.287
73.400871,-53.13,-40.687,9.032
73.411512,-50.05,-40.006,3.963
73.422153,-45.22,-37.821,-0.769
73.432794,-40.04,-34.837,-4.792
73.443435,-37.52,-31.877,-7.469
73.454076,-37.24,-29.627,-8.138
73.464715,-32.48,-27.291,-8.082
73.475354,-28.49,-23.512,-9.761
73.485993,-31.78,-20.998,-7.896
73.496632,-35.49,-21.549,-3.16
73.507271,-39.83,-24.484,0.587
73.51791,-45.71,-26.138,1.504
73.528549,-46.62,-25.96,-0.313
73.539188,-39.2,-24.075,-3.748
73.549827,-26.46,-20.551,-5.188
73.560466,-12.04,-17.015,-4.28
73.571105,1.26,-14.242,-3.08
73.581744,9.73,-12.559,-2.143
73.592383,13.86,-12.275,-1.738
73.603055,14,-12.157,-2.001
73.613727,12.18,-12.676,-1.88
73.624399,10.99,-13.455,-2.301
73.635071,11.34,-13.341,-3.348
73.645743,14.35,-13.54,-4.236
73.656415,18.76,-13.26,-3.404
73.667087,25.27,-12.169,-1.933
73.677759,32.34,-10.487,-2.204
73.688431,36.4,-7.908,-4.735
73.699103,36.54,-5.419,-9.983
73.709775,34.3,-3.708,-15.652
73.720447,32.06,-2.383,-19.541
73.731171,31.29,-2.46,-21.118
73.741895,32.27,-2.489,-20.554
73.752619,34.86,-1.507,-18.462
73.763343,37.45,0.233,-17.445
73.774067,39.55,2.349,-18.564
73.784791,41.37,3.614,-18.483
73.795515,42.42,3.457,-16.379
73.806239,43.33,1.498,-13.739
73.816963,44.73,-1.782,-10.052
73.827687,44.59,-5.56,-4.748
73.838411,46.2,-8.807,0.366
73.849135,50.68,-10.912,2.625
73.859888,52.99,-11.552,4.645
73.870641,53.34,-12.679,7.005
73.881394,51.17,-14.564,9.231
73.892147,47.39,-17.281,11.738
73.9029,42.35,-19.45,14.767
73.913653,36.33,-21.213,17.512
73.924406,28.14,-22.267,19.459
73.935159,17.78,-23.845,20.745
73.945912,5.67,-24.238,20.96
73.956665,-6.86,-24.83,20.287
73.967418,-15.12,-24.23,18.9
73.978171,-16.87,-21.854,17.115
73.988924,-15.54,-18.172,14.779
73.999679,-13.23,-14.304,12.191
74.010434,-10.78,-9.852,8.711
74.021189,-9.31,-5.028,4.729
74.031944,-9.8,-0.843,1.557
74.042699,-13.02,1.861,-0.88
74.053454,-17.36,3.75,-3.532
74.064209,-20.37,3.499,-3.719
74.074964,-17.92,2.202,-0.394
74.085719,-11.41,1.781,2.802
74.096474,-7.63,2.745,1.764
74.107229,-3.57,6.569,-2.182
74.117984,5.95,12.614,-5.026
74.128739,13.23,16.973,-8.38
74.139494,8.54,18.74,-15.176
74.150249,4.55,17.628,-19.353
74.161019,5.39,15.147,-18.582
74.171789,10.92,11.413,-13.128
74.182559,18.83,5.615,-8.464
74.193329,25.76,1.856,-6.496
74.204099,30.66,0.287,-8.479
74.214869,32.48,0.83,-11.155
74.225639,31.92,3.639,-14.996
74.236409,30.31,7.872,-20.86
74.247179,28.56,11.602,-24.68
74.257949,27.93,13.873,-25.062
74.268701,25.27,14.627,-24.502
74.279453,22.61,14.015,-24.255
74.290205,19.95,13.78,-23.728
74.300957,18.41,14.749,-22.775
74.311709,16.45,16.172,-22.382
74.322461,13.58,17.397,-22.877
74.333213,10.78,19.23,-23.193
74.343965,8.33,20.081,-23.185
74.354717,6.51,20.617,-21.385
74.365469,4.34,20.507,-19.556
74.376221,0.98,19.445,-16.758
74.386973,-2.31,18.233,-13.915
74.397725,-5.32,17.074,-10.566
74.408471,-7.98,16.381,-7.845
74.419217,-10.85,16.256,-5.521
74.429963,-14.07,16.219,-4.106
74.440709,-17.5,16.232,-2.966
74.451455,-20.58,15.81,-3.396
74.462201,-21.98,15.599,-4.215
74.472947,-22.26,15.274,-5.197
74.483693,-22.33,15.282,-6.048
74.494439,-22.89,15.011,-6.523
74.505185,-25.83,14.544,-7.102
74.515931,-30.66,14.613,-8.299
74.526677,-38.92,15.89,-10.703
74.53743,-49,17.305,-13.084
74.548183,-58.24,17.978,-13.676
74.558936,-66.01,17.978,-12.468
74.569689,-70.84,17.123,-10.841
74.580442,-74.34,15.128,-7.994
74.591195,-77.07,12.022,-4.491
74.601948,-79.17,7.408,-0.897
74.612701,-81.97,0.949,3.082
74.623454,-87.29,-7.379,6.375
74.634207,-94.43,-17.942,8.636
74.64496,-102.69,-29.316,9.047
74.655713,-110.04,-41.563,6.745
74.666452,-114.73,-53.672,2.051
74.677191,-117.18,-64.475,-4.403
74.68793,-117.46,-74.914,-11.717
74.698669,-115.78,-84.562,-19.886
74.709408,-115.5,-94.497,-26.827
74.720147,-114.66,-106.103,-32.356
74.730886,-110.46,-118.836,-35.525
74.741625,-102.9,-129.741,-38.585
74.752364,-96.74,-136.809,-44.452
74.763103,-87.99,-141.737,-51.576
74.773842,-75.95,-143.928,-57.293
74.784581,-64.33,-142.708,-63.404
74.79532,-51.87,-140.953,-68.923
74.806064,-38.71,-137.86,-73.567
74.816808,-25.2,-134.162,-76.398
74.827552,-12.53,-129.685,-77.599
74.838296,-1.75,-124.325,-79.781
74.84904,8.61,-118.145,-79.757
74.859784,20.72,-111.759,-79.697
74.870528,31.5,-103.933,-80.947
74.881272,37.94,-95.758,-82.562
74.892016,39.34,-88.313,-81.25
74.90276,36.33,-83.276,-77.163
74.913504,30.87,-80.964,-70.927
74.924248,22.05,-80.415,-64.362
74.934977,13.72,-79.892,-58.867
74.945706,5.25,-78.654,-53.389
74.956435,-2.45,-78.584,-47.335
74.967164,-7.42,-77.249,-38.783
74.977893,-9.66,-73.513,-28.529
74.988622,-12.11,-67.895,-18.867
74.999351,-15.47,-60.908,-11.735
75.01008,-19.18,-54.24,-4.802
75.020809,-22.61,-48.27,1.653
75.031538,-24.71,-42.475,8.29
75.042267,-25.48,-36.416,13.837
75.052996,-24.5,-27.981,17.599
75.063725,-22.75,-18.679,19.665
75.074455,-20.72,-9.53,20.994
75.085185,-20.37,-2.43,21.038
75.095915,-21.63,1.99,19.756
75.106645,-21.91,4.07,20.051
75.117375,-20.86,4.111,20.627
75.128105,-17.64,3.888,21.085
75.138835,-13.16,5.327,20.984
75.149565,-7.42,8.125,19.629
75.160295,-3.36,11.061,18.299
75.171025,-3.01,11.888,19.653
75.181755,-4.69,8.851,24.377
75.192485,-8.26,4.404,31.057
75.203192,-12.6,1.562,35.886
75.213899,-16.38,1.53,38.084
75.224606,-18.76,3.724,37.334
75.235313,-20.44,6.302,36.011
75.24602,-20.16,6.98,37.41
75.256727,-18.13,8.42,39.726
75.267434,-14.49,11.437,41.964
75.278141,-9.59,16.855,43.487
75.288848,-7.07,23.655,44.829
75.299555,-4.83,31.96,46.506
75.310262,-4.13,39.571,49.697
75.320969,-2.73,46.097,55.823
75.331676,7.14,52.703,63.1
75.342377,15.4,63.36,60.715
75.353078,19.39,78.463,48.024
75.363779,24.29,97.215,36.404
75.37448,32.34,115.332,31.211
75.385181,38.43,129.784,26.652
75.395882,35,141.822,20.458
75.406583,32.97,151.614,16.925
75.417284,38.57,157.863,14.544
75.427985,42.77,158.661,11.628
75.438686,46.13,153.917,9.512
75.449387,52.5,144.424,9.331
75.460088,61.67,135.77,8.018
75.470755,66.99,128.633,6.973
75.481422,68.18,121.724,7.46
75.492089,64.75,115.905,9.42
75.502756,58.45,110.687,11.201
75.513423,50.61,106.376,13.071
75.52409,41.37,102.309,14.77
75.534757,33.25,100.075,14.945
75.545424,25.9,97.934,13.785
75.556091,21.49,95.797,12.2
75.566758,19.25,94.016,10.607
75.577425,18.27,90.286,9.594
75.588092,17.22,85.971,9.473
75.598759,14.63,81.462,10.455
75.609401,11.9,76.442,11.915
75.620043,8.26,71.163,14.041
75.630685,5.25,65.478,15.242
75.641327,2.31,60.916,15.717
75.651969,0.28,57.469,15.109
75.662611,-1.05,54.521,12.883
75.673253,-1.54,52.291,10.215
75.683895,-0.63,48.426,8.752
75.694537,-0.14,41.646,8.907
75.705179,0.21,34.42,9.979
75.715821,0.49,28.707,9.327
75.726463,0.77,24.144,7.385
75.737092,0.42,21.006,5.836
75.747721,-0.84,18.102,4.969
75.75835,-2.24,13.95,5.943
75.768979,-3.85,8.906,8.749
75.779608,-4.76,5.532,10.145
75.790237,-6.16,4.827,10.518
75.800866,-7.49,5.913,7.582
75.811495,-8.61,6.614,4.009
75.822124,-10.08,5.568,2.688
75.832753,-12.46,3.556,1.196
75.843382,-15.26,1.176,0.989
75.854011,-16.8,-1.342,1.967
75.864659,-17.57,-3.475,3.581
75.875307,-19.04,-5.822,4.802
75.885955,-18.76,-7.659,5.544
75.896603,-17.08,-9.792,5.95
75.907251,-16.03,-12.391,5.776
75.917899,-15.96,-14.609,5.456
75.928547,-18.41,-15.806,4.179
75.939195,-23.8,-16.536,2.273
75.949843,-29.75,-15.523,-0.249
75.960491,-32.83,-14.14,-1.64
75.971139,-26.67,-12.94,-0.789
75.981787,-21.63,-14.221,2.042
75.992457,-17.99,-15.595,6.206
76.003127,-15.68,-14.909,7.962
76.013797,-17.43,-13.361,4.823
76.024467,-22.12,-11.832,0.188
76.035137,-28.28,-11.225,-2.05
76.045807,-30.38,-12.202,-2.152
76.056477,-25.76,-14.063,-0.063
76.067147,-15.33,-17.44,4.175
76.077817,-3.99,-20.647,8.656
76.088487,4.27,-23.4,12.578
76.099157,9.52,-25.07,15.198
76.109827,9.87,-25.609,16.24
76.120485,6.09,-25.2,15.53
76.131143,-0.07,-22.933,11.949
76.141801,-6.79,-19.775,7.744
76.152459,-10.78,-16.564,2.837
76.163117,-10.29,-13.621,-0.554
76.173775,-9.8,-12.242,-1.519
76.184433,-8.61,-11.666,-1.56
76.195091,-6.86,-10.45,-1.203
76.205749,-4.41,-8.175,-0.802
76.216407,-2.17,-4.659,-0.182
76.227065,-2.17,-0.941,-1.516
76.237723,-5.81,2.205,-3.236
76.248381,-10.71,5.538,-5.207
76.259037,-13.72,8.644,-6.295
76.269693,-13.86,11.564,-7.13
76.280349,-11.83,14.281,-7.22
76.291005,-6.51,15.578,-5.712
76.301661,1.05,16.017,-2.151
76.312317,6.3,16.261,1.303
76.322973,8.05,15.693,2.909
76.333629,7.14,15.052,2.512
76.344285,3.99,14.059,0.489
76.354941,-0.56,12.972,-1.409
76.365597,-3.36,11.268,-2.633
76.376253,-2.87,10.101,-3.266
76.386938,-0.56,8.933,-2.69
76.397623,1.61,7.348,-0.553
76.408308,2.17,6.358,1.832
76.418993,2.31,6.492,1.074
76.429678,0.77,8.722,-3.509
76.440363,-0.49,11.896,-8.209
76.451048,-2.52,13.38,-10.577
76.461733,-7,13.356,-10.439
76.472418,-9.45,14.143,-8.453
76.483103,-6.44,15.984,-5.996
76.493788,-2.24,16.888,-5.481
76.504473,-9.45,15.27,-8.396
76.515166,-10.99,15.343,-10.018
76.525859,0,16.145,-12.151
76.536552,-8.89,12.082,-14.502
76.547245,-26.88,6.303,-15.592
76.557938,-31.78,3.027,-17.165
76.568631,-25.34,-0.87,-16.431
76.579324,-16.52,-8.387,-10.08
76.590017,-8.19,-16.439,0.513
76.60071,3.5,-24.316,10.923
76.611403,15.54,-30.856,18.584
76.622096,21.91,-34.136,21.062
76.632789,20.02,-34.177,19.278
76.643482,14.49,-32.944,16.723
76.654161,7.28,-30.573,14.156
76.66484,-2.38,-28.079,10.9
76.675519,-10.85,-24.783,7.927
76.686198,-18.41,-20.968,6.041
76.696877,-23.1,-17.926,5.724
76.707556,-24.36,-15.651,7.334
76.718235,-22.47,-13.4,9.081
76.728914,-20.44,-12.078,10.451
76.739593,-18.69,-11.154,11.254
76.750272,-17.15,-10.485,11.088
76.760951,-16.17,-9.402,9.786
76.77163,-17.08,-7.448,6.363
76.782309,-17.15,-4.987,1.679
76.792981,-18.27,-3.115,-2.895
76.803653,-19.74,-1.858,-5.588
76.814325,-19.88,-0.796,-5.969
76.824997,-18.55,0.166,-4.164
76.835669,-16.38,2.023,-3.411
76.846341,-13.58,3.839,-4.441
76.857013,-10.57,5.838,-5.297
76.867685,-7.63,7.931,-5.07
76.878357,-5.18,9.95,-4.429
76.889029,-5.6,11.126,-4.649
76.899701,-7.7,11.422,-5.52
76.910373,-11.62,10.972,-6.595
76.921027,-15.19,10.489,-7.888
76.931681,-17.85,9.978,-8.618
76.942335,-19.32,8.482,-8.598
76.952989,-19.46,7.205,-7.401
76.963643,-19.32,5.4,-6.44
76.974297,-19.88,3.795,-5.799
76.984951,-22.12,2.793,-5.763
76.995605,-25.62,2.083,-6.172
77.006259,-30.52,0.972,-6.723
77.016913,-34.79,-0.52,-5.92
77.027567,-36.19,-2.575,-3.937
77.038221,-27.44,-2.474,-0.081
77.048875,-15.75,-1.192,3.131
77.059527,-9.31,-2.266,7.206
77.070179,-9.17,-5.221,13.082
77.080831,-15.47,-7.63,13.439
77.091483,-25.41,-8.863,6.327
77.102135,-33.67,-10.948,0.415
77.112787,-35.56,-15.251,-0.983
77.123439,-29.75,-21.86,1.832
77.134091,-17.29,-28.161,8.54
77.144743,-3.71,-33.058,15.353
77.155395,7.42,-36.301,21.249
77.166047,15.47,-39.46,25.455
77.176699,18.62,-40.047,26.773
77.187351,17.71,-37.396,23.828
77.198044,16.66,-32.527,18.787
77.208737,15.61,-26.084,12.886
77.21943,14.14,-19.945,8.709
77.230123,12.25,-14.593,7.378
77.240816,10.5,-9.889,7.71
77.251509,8.82,-5.575,6.623
77.262202,6.58,-1.682,2.689
77.272895,4.9,1.626,-1.561
77.283588,2.24,4.172,-4.311
77.294281,-0.91,6.203,-4.948
77.304974,-3.15,7.529,-5.212
77.315655,-3.29,8.92,-5.038
77.326336,-1.47,11.191,-5.419
77.337017,-0.63,13.393,-7.021
77.347698,0.21,14.589,-9.369
77.358379,0.21,14.982,-12.001
77.36906,0.7,13.846,-12.414
77.379741,1.05,12.074,-10.026
77.390422,0.42,10.27,-9.064
77.401103,-1.26,9.905,-9.413
77.411784,-3.29,9.581,-9.186
77.422465,-5.39,8.956,-7.661
77.433146,-7.7,8.389,-6.055
77.443827,-9.1,8.146,-4.677
77.45453,-9.38,9.212,-5.484
77.465233,-8.61,11.75,-7.382
77.475936,-7.21,14.203,-8.797
77.486639,-6.58,16.88,-9.463
77.497342,-7.84,18.871,-9.467
77.508045,-10.57,20.428,-9.832
77.518748,-14.63,21.741,-10.027
77.529451,-18.69,23.205,-10.266
77.540154,-21.07,24.693,-10.644
77.550857,-20.44,25.918,-11.139
77.56156,-17.99,27.061,-11.577
77.572263,-15.33,27.702,-11.179
77.582959,-11.97,28.039,-10.267
77.593655,-10.15,28.534,-9.043
77.604351,-10.29,28.753,-7.867
77.615047,-11.2,29.434,-6.894
77.625743,-8.19,30.031,-5.438
77.636439,-7.7,29.365,-5.697
77.647135,-13.16,27.419,-6.751
77.657831,-15.61,27.046,-5.04
77.668527,-8.54,28.287,-2.404
77.679223,-4.2,27.156,-3.244
77.689919,-4.97,24.585,-5.19
77.700615,-1.61,23.364,-5.121
77.711311,5.88,22.602,-2.412
77.722028,12.11,19.59,0.966
77.732745,16.94,15.406,5.346
77.743462,21.42,12.195,9.045
77.754179,25.27,10.589,10.894
77.764896,25.34,10.751,9.572
77.775613,20.65,11.764,5.842
77.78633,16.31,12.429,2.476
77.797047,11.06,12.619,0.59
77.807764,4.9,10.997,0.518
77.818481,-2.24,7.688,1.142
77.829198,-9.73,4.035,2.915
77.839915,-15.75,1.262,5.34
77.850635,-19.11,-0.822,6.679
77.861355,-21.21,-1.759,5.945
77.872075,-21,-2.031,4.262
77.882795,-19.95,-1.508,2.506
77.893515,-17.64,-0.86,-0.365
77.904235,-16.45,-0.564,-2.445
77.914955,-16.52,-0.88,-3.07
77.925675,-16.87,-2.328,-3.325
77.936395,-17.78,-3.232,-3.84
77.947115,-18.62,-3.512,-4.671
77.957835,-18.76,-3.387,-5.786
77.968555,-17.29,-3.091,-6.658
77.979275,-14.49,-3.208,-5.186
77.990003,-11.55,-3.37,-2.656
78.000731,-11.48,-4.193,-0.81
78.011459,-14.07,-4.035,-0.498
78.022187,-18.41,-3.419,-2.38
78.032915,-23.31,-2.142,-5.993
78.043643,-26.04,-0.881,-9.111
78.054371,-26.04,-0.671,-10.709
78.065099,-23.24,-1.51,-9.578
78.075827,-19.88,-3.898,-6.516
78.086555,-18.97,-6.517,-3.353
78.097283,-20.86,-8.589,-2.083
78.108011,-23.73,-9.704,-3.417
78.118725,-25.9,-9.563,-6.235
78.129439,-23.03,-8.066,-7.464
78.140153,-11.97,-5.094,-6.585
78.150867,-5.32,-3.212,-4.76
78.161581,-2.87,-4.205,2.884
78.172295,0,-6.109,12.073
78.183009,-1.68,-6.543,14.129
78.193723,-6.93,-5.562,8.97
78.204437,-10.5,-3.985,4.06
78.215151,-9.8,-2.603,1.46
78.225865,-5.53,-3.856,2.519
78.236579,0.98,-6.422,7.397
78.247293,4.62,-10.679,13.399
78.258006,6.16,-14.356,17.726
78.268719,7.35,-14.993,19.32
78.279432,6.65,-14.875,17.848
78.290145,4.9,-13.007,13.7
78.300858,1.61,-10.12,7.811
78.311571,-2.17,-7.489,2.162
78.322284,-4.76,-6.362,-1.406
78.332997,-6.86,-5.965,-3.255
78.34371,-8.89,-5.158,-3.397
78.354423,-10.29,-3.679,-5.34
78.365136,-12.81,-3.046,-7.716
78.375849,-16.17,-3.258,-9.744
78.386586,-18.83,-2.832,-10.948
78.397323,-21.42,-2.232,-12.335
78.40806,-23.87,-1.904,-12.988
78.418797,-25.2,-1.567,-12.076
78.429534,-24.01,-1.562,-8.876
78.440271,-20.72,-1.023,-6.293
78.451008,-17.5,-0.808,-4.692
78.461745,-14.7,-0.933,-4.785
78.472482,-11.34,-1.436,-5.158
78.483219,-8.47,-2.304,-4.671
78.493956,-6.79,-4.116,-2.858
78.504693,-6.16,-5.908,-0.757
78.515446,-7.49,-7.644,0.216
78.526199,-9.87,-8.88,-0.429
78.536952,-12.46,-9.821,-0.737
78.547705,-13.65,-9.971,-0.692
78.558458,-14.63,-9.724,-0.08
78.569211,-14.77,-9.128,0.168
78.579964,-12.11,-6.914,0.913
78.590717,-9.94,-4.391,1.927
78.60147,-10.01,-2.899,2.332
78.612223,-13.72,-3.215,4.124
78.622976,-14.63,-4.062,9.733
78.633729,-7.7,-3.862,16.662
78.644482,-7.49,-4.288,15.45
78.655235,-15.19,-5.023,10.345
78.666008,-15.96,-2.087,7.806
78.676781,-5.53,3.715,5.133
78.687554,-1.05,8.349,-1.798
78.698327,-5.46,7.655,-7.535
78.7091,-2.1,7.063,-4.583
78.719873,4.55,6.654,0.96
78.730646,7,4.534,3.714
78.741419,8.05,1.655,3.917
78.752192,9.52,0.731,4.323
78.762965,11.34,1.667,3.848
78.773742,9.87,3.958,1.338
78.784519,3.29,5.652,-1.42
78.795296,-3.36,6.05,-3.269
78.806073,-9.8,7.44,-4.303
78.81685,-15.96,9.188,-5.346
78.827627,-20.65,10.396,-5.346
78.838404,-22.54,10.826,-4.559
78.849181,-21.84,10.903,-2.982
78.859958,-21.42,10.741,-2.868
78.870735,-22.4,10.907,-3.408
78.881512,-22.05,11.11,-4.154
78.892289,-20.65,10.761,-3.789
78.903066,-17.01,9.586,-2.361
78.91385,-12.18,8.357,-0.232
78.924634,-8.26,7.064,0.25
78.935418,-5.95,5.697,-0.062
78.946202,-3.99,4.967,-0.759
78.956986,-3.29,4.728,-2.223
78.96777,-3.64,4.399,-2.778
78.978554,-5.39,3.313,-2.259
78.989338,-7.49,2.076,-1.695
79.000122,-8.75,0.957,-1.395
79.010906,-10.01,-0.203,-1.671
79.02169,-12.18,-1.403,-2.522
79.032474,-14.35,-1.959,-4.61
79.043221,-16.31,-1.943,-7.522
79.053968,-17.92,-2.787,-9.59
79.064715,-19.32,-3.598,-10.23
79.075462,-19.81,-5.905,-9.642
79.086209,-20.02,-8.286,-8.64
79.096956,-21.14,-10.816,-7.593
79.107703,-21.77,-12.798,-6.024
79.11845,-19.32,-13.99,-4.102
79.129197,-10.36,-13.601,-2.683
79.139944,-3.57,-13.633,-2.901
79.150691,-2.59,-15.709,0.002
79.161438,-2.17,-18.47,5.984
79.172185,-0.56,-19.11,9.212
79.182891,-2.31,-19.747,7.18
79.193597,-6.02,-20.112,3.206
79.204303,-5.81,-21.037,2.403
79.215009,-1.96,-23.076,3.892
79.225715,3.15,-26.008,6.005
79.236421,8.19,-29.345,8.402
79.247127,11.76,-32.544,10.823
79.257833,14.35,-34.673,12.012
79.268539,14.77,-35.601,11.635
79.279245,12.46,-34.685,9.664
79.289951,8.33,-32.232,5.832
79.300657,3.57,-29.362,0.438
79.311358,-0.14,-25.636,-5.373
79.322059,-3.22,-22.665,-10.536
79.33276,-5.74,-19.811,-14.226
79.343461,-7.42,-17.731,-15.139
79.354162,-8.12,-16.968,-14.223
79.364863,-7.49,-16.996,-11.242
79.375564,-7.42,-17.442,-7.909
79.386265,-6.51,-18.5,-5.537
79.396966,-7.07,-18.09,-5.038
79.407667,-7.21,-17.092,-4.649
79.418368,-6.02,-15.535,-5.014
79.429069,-5.67,-14.234,-6.348
79.439764,-4.69,-14.688,-5.788
79.450459,-2.87,-16.383,-3.031
79.461154,-1.54,-17.862,0.12
79.471849,-0.77,-19.508,2.602
79.482544,-1.26,-20.534,3.985
79.493239,-0.49,-20.631,4.536
79.503934,0.91,-19.626,2.866
79.514629,1.96,-18.612,0.343
79.525324,3.64,-17.757,-1.283
79.536019,6.65,-17.534,-1.741
79.546714,11.06,-17.964,-1.319
79.557409,15.47,-19.545,0.392
79.568066,19.04,-22.18,2.842
79.578723,18.13,-23.774,4.622
79.58938,14.35,-25.087,6.025
79.600037,11.83,-26.336,9.075
79.610694,19.95,-27.316,14.233
79.621351,24.85,-26.952,13.373
79.632008,20.37,-25.797,4.407
79.642665,23.8,-21.455,-0.869
79.653322,35.21,-14.87,-1.129
79.663979,39.2,-8.155,-2.931
79.674636,33.81,-3.432,-7.144
79.685293,27.16,-1.526,-7.875
79.69595,23.87,-0.155,-5.572
79.706581,19.81,0.798,-4.124
79.717212,16.59,1.192,-4.339
79.727843,15.4,1.415,-4.797
79.738474,16.45,2.643,-5.718
79.749105,16.52,4.622,-6.862
79.759736,15.68,6.15,-6.663
79.770367,16.66,7.266,-5.329
79.780998,15.75,7.582,-3.496
79.791629,13.44,7.481,-2.519
79.80226,11.13,6.873,-1.489
79.812891,8.82,6.366,-0.228
79.823522,6.37,5.588,0.559
79.834144,5.11,4.643,1.885
79.844766,5.53,4.173,2.939
79.855388,8.68,3.358,3.933
79.86601,11.83,2.292,4.74
79.876632,13.58,1.594,4.262
79.887254,16.45,1.57,3.191
79.897876,18.34,1.817,1.387
79.908498,19.95,2.336,0.056
79.91912,20.65,2.717,-1.298
79.929742,21.14,2.421,-1.634
79.940364,22.19,1.403,-1.103
79.950986,23.03,-0.049,0.276
79.961611,21.77,-1.573,2.068
79.972236,17.22,-3.394,3.524
79.982861,13.23,-5.084,4.648
79.993486,8.54,-5.465,4.794
80.004111,3.22,-6.102,3.971
80.014736,-1.82,-6.017,2.28
80.025361,-6.86,-5.58,-0.202
80.035986,-11.2,-4.416,-2.769
80.046611,-15.47,-3.229,-5.474
80.057236,-17.29,-2.462,-7.4
80.067861,-18.76,-1.692,-8.544
80.078486,-21.56,-0.991,-9.699
80.089125,-26.25,-0.808,-9.525
80.099764,-32.9,-1.157,-9.16
80.110403,-39.41,-0.642,-8.856
80.121042,-43.82,0.785,-8.889
80.131681,-43.12,2.452,-7.457
80.14232,-33.67,4.78,-4.133
80.152959,-20.86,10.04,-2.921
80.163598,-18.48,15.425,-4.033
80.174237,-24.29,16.698,-2.387
80.184876,-32.27,16.5,2.767
80.195515,-38.85,16.492,6.036
80.206154,-41.37,17.028,5.419
80.21678,-41.86,18.84,2.398
80.227406,-41.79,18.706,1.948
80.238032,-39.34,15.393,4.207
80.248658,-35.91,11.546,7.082
80.259284,-31.64,7.016,8.985
80.26991,-29.4,2.816,10.234
80.280536,-28.35,-0.988,10.843
80.291162,-27.51,-3.77,9.286
80.301788,-26.74,-5.344,6.521
80.312414,-25.2,-5.604,2.353
80.32304,-24.64,-4.672,-2.53
80.333666,-23.87,-2.831,-7.323
80.344292,-23.03,-0.496,-10.892
80.354946,-21.49,1.892,-12.745
80.3656,-18.83,4.053,-13.715
80.376254,-16.17,5.801,-14.757
80.386908,-12.88,7.82,-14.117
80.397562,-9.59,9.41,-13.054
80.408216,-8.12,11.385,-11.356
80.41887,-8.89,12.674,-10.204
80.429524,-10.43,13.619,-9.113
80.440178,-12.04,14.143,-8.453
80.450832,-12.18,14.366,-7.702
80.461486,-10.78,13.34,-7.528
80.47214,-9.73,12.127,-8.31
80.482794,-10.99,11.223,-8.825
80.493455,-13.44,10.367,-9.616
80.504116,-17.08,10.063,-10.309
80.514777,-22.19,9.374,-10.431
80.525438,-26.25,8.782,-9.895
80.536099,-28.35,8.352,-8.265
80.54676,-28.07,9.078,-5.934
80.557421,-27.23,10.713,-3.513
80.568082,-26.46,12.124,-3.051
80.578743,-27.3,11.763,-2.617
80.589404,-28.56,10.149,-1.125
80.600065,-31.57,7.481,-0.102
80.610726,-36.54,5.888,-1.947
80.621401,-38.5,7.838,-4.944
80.632076,-37.17,10.493,-8.314
80.642751,-32.69,12.752,-9.835
80.653426,-24.99,14.824,-8.688
80.664101,-17.5,15.339,-4.759
80.674776,-12.18,14.813,-0.16
80.685451,-10.43,13.106,2.666
80.696126,-9.94,11.938,3.242
80.706801,-8.4,11.042,4.293
80.717476,-2.24,10.086,6.896
80.728151,2.94,8.991,7.058
80.738826,5.95,8.516,2.497
80.749495,10.43,11.65,-2.779
80.760164,21,15.895,-7.504
80.770833,30.8,20.48,-12.95
80.781502,30.38,23.966,-22.642
80.792171,33.53,28.097,-31.154
80.80284,45.57,31.425,-35.117
80.813509,59.29,31.348,-35.486
80.824178,75.18,28.944,-33.137
80.834847,95.34,26.515,-30.651
80.845516,118.16,25.023,-28.64
80.856185,140.35,24.541,-26.308
80.866854,155.47,23.293,-24.467
80.877523,162.54,22.1,-26.17
80.888225,163.17,21.415,-27.926
80.898927,160.51,19.744,-26.514
80.909629,156.31,16.039,-21.623
80.920331,148.75,11.23,-16.927
80.931033,138.04,5.894,-13.674
80.941735,126.63,2.111,-12.778
80.952437,114.66,1.685,-12.782
80.963139,102.34,2.95,-12.701
80.973841,91.35,5.675,-14.85
80.984543,81.34,8.513,-15.629
80.995245,69.3,9.284,-14.356
81.005947,57.54,9.106,-12.539
81.016687,47.88,9.293,-10.374
81.027427,40.39,9.642,-8.322
81.038167,35.28,10.023,-7.26
81.048907,30.31,10.234,-6.441
81.059647,24.15,9.91,-5.005
81.070387,16.8,8.689,-3.728
81.081127,10.43,7.899,-1.664
81.091867,4.9,6.533,0.441
81.102607,0.35,4.728,2.611
81.113347,-2.31,3.516,4.245
81.124087,-4.34,2.693,3.673
81.134827,-6.65,2.255,2.53
81.145579,-8.82,1.184,1.346
81.156331,-9.52,-0.195,-0.105
81.167083,-8.26,-2.474,-0.081
81.177835,-6.09,-5.008,1.392
81.188587,-3.85,-7.144,3.432
81.199339,-1.61,-8.438,5.123
81.210091,0.42,-8.689,6.145
81.220843,0.98,-8.223,6.724
81.231595,-1.68,-7.363,7.089
81.242347,-7.7,-6.637,7.004
81.253099,-13.86,-6.333,7.697
81.263851,-12.32,-6.628,10.986
81.274603,-10.15,-7.139,13.881
81.285335,-10.57,-9.312,17.336
81.296067,-7.77,-12.239,23.857
81.306799,-3.78,-13.783,27.779
81.317531,-4.34,-13.97,25.613
81.328263,-9.52,-14.148,25.013
81.338995,-13.16,-15.426,26.21
81.349727,-12.46,-15.187,24.048
81.360459,-9.94,-14.295,22.215
81.371191,-7.21,-14.976,23.659
81.381923,-7.7,-17.271,25.387
81.392655,-11.27,-20.202,26.291
81.403387,-15.75,-22.339,27.123
81.414119,-20.65,-23.669,26.604
81.424844,-26.18,-24.635,25.225
81.435569,-31.29,-24.813,22.209
81.446294,-35.7,-23.541,17.813
81.457019,-38.99,-21.169,12.829
81.467744,-42.35,-19.094,7.508
81.478469,-44.52,-16.893,3.49
81.489194,-45.5,-14.926,-0.002
81.499919,-45.78,-14.424,-2.046
81.510644,-47.18,-15.194,-2.111
81.521369,-50.26,-15.872,-2.301
81.532094,-54.39,-15.88,-2.658
81.542819,-59.15,-14.534,-3.842
81.553552,-61.67,-12.527,-5.55
81.564285,-63.35,-10.795,-6.097
81.575018,-64.75,-9.036,-7.209
81.585751,-66.5,-7.065,-8.709
81.596484,-69.09,-4.247,-10.984
81.607217,-71.12,-2.098,-13.093
81.61795,-73.08,-0.33,-13.848
81.628683,-74.62,0.833,-13.998
81.639416,-75.74,0.631,-13.252
81.650149,-79.24,-1.165,-10.725
81.660882,-84.91,-3.801,-8.276
81.671615,-92.05,-5.419,-7.566
81.682361,-101.5,-6.878,-7.752
81.693107,-106.05,-7.774,-5.493
81.703853,-103.95,-6.947,-4.139
81.714599,-102.34,-4.855,-6.329
81.725345,-94.5,-0.82,-8.248
81.736091,-75.88,5.27,-12.149
81.746837,-67.55,10.098,-20.183
81.757583,-62.44,14.449,-23.894
81.768329,-52.43,18.97,-23.737
81.779075,-41.72,18.524,-20.403
81.789821,-34.37,13.785,-12.07
81.800567,-31.29,6.257,-0.816
81.81133,-29.33,1.274,7.688
81.822093,-26.88,-0.335,12.38
81.832856,-28.28,-1.117,14.801
81.843619,-31.22,-1.048,17.23
81.854382,-34.65,0.234,19.233
81.865145,-39.13,2.545,18.219
81.875908,-44.8,5.545,14.909
81.886671,-50.75,7.224,11.438
81.897434,-54.11,7.191,8.802
81.908197,-55.37,5.69,6.832
81.91896,-53.48,2.949,4.643
81.929723,-48.44,0.897,3.783
81.940463,-41.79,-1.179,4.27
81.951203,-35.98,-3.365,5.377
81.961943,-32.48,-6.714,9.052
81.972683,-31.15,-10.144,13.991
81.983423,-31.5,-12.39,17.86
81.994163,-32.9,-13.675,18.699
82.004903,-34.51,-14.275,17.67
82.015643,-34.93,-14.077,16.141
82.026383,-34.51,-14.016,14.588
82.037123,-33.46,-13.396,13.489
82.047863,-31.85,-12.54,13.071
82.058603,-30.1,-11.579,13.667
82.069343,-30.17,-11.226,15.293
82.080058,-33.18,-11.352,16.408
82.090773,-36.61,-12.459,16.639
82.101488,-39.69,-14.255,15.541
82.112203,-39.9,-15.115,13.967
82.122918,-35.98,-14.341,12.398
82.133633,-29.54,-12.573,11.644
82.144348,-25.27,-11.064,11.554
82.155063,-25.55,-10.614,11.42
82.165778,-31.85,-9.605,11.741
82.176493,-33.88,-5.841,12.973
82.187208,-33.74,-3.242,11.938
82.197923,-36.75,-5.776,15.827
82.208645,-40.11,-9.509,27.324
82.219367,-41.09,-12.087,32.271
82.230089,-38.85,-11.006,26.136
82.240811,-31.57,-9.295,20.467
82.251533,-23.17,-10.35,19.997
82.262255,-13.3,-13.824,22.369
82.272977,-4.34,-17.704,26.234
82.283699,0.91,-22.485,29.159
82.294421,1.33,-27.886,30.765
82.305143,0.56,-31.329,30.94
82.315865,2.24,-33.247,29.322
82.326587,3.01,-34.184,26.172
82.337277,4.76,-34.193,22.19
82.347967,6.16,-34.534,18.078
82.358657,6.02,-34.364,14.696
82.369347,3.92,-34.085,10.694
82.380037,0.42,-33.943,6.667
82.390727,-2.24,-33.153,3.395
82.401417,-4.97,-31.398,1.501
82.412107,-6.72,-28.405,-0.957
82.422797,-9.24,-24.33,-3.508
82.433487,-12.04,-21.115,-4.007
82.444177,-14.14,-20.129,-2.341
82.454867,-16.24,-20.121,0.433
82.465557,-19.11,-19.804,4.682
82.476238,-22.12,-19.28,8.968
82.486919,-23.94,-17.297,12.232
82.4976,-25.97,-14.389,13.882
82.508281,-28.28,-11.506,14.462
82.518962,-31.92,-10.873,14.502
82.529643,-36.26,-12.548,16.339
82.540324,-37.03,-14.372,20.638
82.551005,-38.29,-16.93,24.665
82.561686,-32.62,-18.041,27.739
82.572367,-27.37,-17.388,24.442
82.583048,-26.67,-15.115,16.384
82.593729,-16.38,-9.054,7.004
82.604383,-4.76,-3.285,-5.555
82.615037,-1.96,-2.679,-17.46
82.625691,1.12,-4.01,-22.813
82.636345,5.81,-7.768,-20.846
82.646999,10.92,-13.631,-16.62
82.657653,13.51,-19.23,-11.067
82.668307,15.33,-22.506,-7.807
82.678961,18.69,-22.936,-7.385
82.689615,20.86,-21.452,-8.545
82.700269,21.84,-19.202,-10.423
82.710923,22.4,-17.876,-11.895
82.721577,22.96,-17.953,-11.055
82.732231,23.52,-19.984,-8.002
82.74287,21.49,-23.937,-4.932
82.753509,18.55,-28.738,-3.504
82.764148,16.31,-33.523,-3.779
82.774787,14.28,-38.385,-4.423
82.785426,11.55,-42.756,-3.416
82.796065,9.1,-46.888,-0.946
82.806704,6.86,-50.557,1.321
82.817343,5.95,-51.831,2.091
82.827982,4.97,-51.389,2.809
82.838621,2.73,-51.194,4.123
82.84926,0,-52.394,4.48
82.859899,-3.57,-54.008,3.556
82.870536,-6.93,-54.762,1.788
82.881173,-9.87,-54.734,0.016
82.89181,-11.9,-55.78,-0.098
82.902447,-12.67,-57.625,1.496
82.913084,-13.3,-59.466,2.664
82.923721,-14.77,-59.608,1.857
82.934358,-16.31,-57.39,-0.239
82.944995,-17.78,-52.33,-3.541
82.955632,-18.27,-46.017,-6.692
82.966269,-17.5,-39.558,-9.463
82.976906,-15.96,-33.342,-12.063
82.987543,-14.49,-28.253,-14.72
82.99819,-13.09,-25.711,-17.044
83.008837,-11.55,-25.849,-18.276
83.019484,-5.6,-26.936,-17.757
83.030131,3.22,-27.674,-16.395
83.040778,8.12,-27.458,-14.793
83.051425,8.89,-27.77,-12.218
83.062072,3.43,-28.707,-9.327
83.072719,-6.16,-28.946,-8.374
83.083366,-15.33,-27.295,-8.864
83.094013,-18.76,-24.7,-10.681
83.10466,-15.19,-20.995,-13.156
83.115307,-6.37,-14.783,-15.33
83.125954,0.7,-7.682,-16.495
83.136601,5.39,-1.085,-16.824
83.147271,7.77,5.44,-15.531
83.157941,9.45,11.518,-14.531
83.168611,10.29,16.757,-13.607
83.179281,8.96,19.239,-13.169
83.189951,6.65,19.126,-12.123
83.200621,3.08,16.701,-11.271
83.211291,0.84,13.453,-9.783
83.221961,0.49,10.124,-8.237
83.232631,1.54,8.012,-7.543
83.243301,2.66,7.46,-7.641
83.253964,3.43,7.687,-8.525
83.264627,4.62,8.364,-9.543
83.27529,4.34,8.94,-9.583
83.285953,2.73,8.628,-9.425
83.296616,0.56,8.38,-8.829
83.307279,-2.66,7.314,-6.813
83.317942,-5.67,5.259,-3.622
83.328605,-8.33,2.924,-0.053
83.339268,-10.15,0.694,2.113
83.349931,-10.29,-0.689,2.295
83.360594,-8.82,-1.756,0.686
83.371257,-8.05,-3.248,-0.928
83.38192,-5.88,-5.499,-2.676
83.392598,-3.92,-8.256,-3.162
83.403276,-1.82,-11.403,-2.65
83.413954,0,-14.838,-2.119
83.424632,1.82,-18.369,-2.244
83.43531,2.52,-21.05,-2.361
83.445988,1.26,-23.199,-2.669
83.456666,-0.07,-25.093,-3.216
83.467344,-3.29,-26.074,-4.1
83.478022,-7.84,-24.615,-6.33
83.4887,-10.5,-22.344,-7.92
83.499378,-9.66,-21.115,-7.633
83.510056,-12.39,-21.095,-7.345
83.520719,-19.95,-22.336,-8.772
83.531382,-21.77,-23.585,-10.556
83.542045,-21.63,-23.488,-12.316
83.552708,-21.63,-23.712,-14.274
83.563371,-21.7,-25.309,-14.485
83.574034,-21.98,-26.497,-14.197
83.584697,-22.33,-26.372,-14.104
83.59536,-21.21,-25.123,-13.528
83.606023,-20.3,-23.724,-12.997
83.616686,-18.97,-22.734,-12.965
83.627349,-15.96,-22.543,-12.434
83.638012,-12.95,-23.111,-10.828
83.648675,-11.06,-23.784,-7.819
83.659348,-8.4,-25.604,-3.946
83.670021,-5.74,-27.302,-0.763
83.680694,-4.62,-28.486,0.308
83.691367,-5.04,-28.993,0.361
83.70204,-5.39,-29.078,-0.365
83.712713,-4.27,-28.827,-1.387
83.723386,-2.24,-28.835,-1.744
83.734059,-0.35,-27.217,-2.454
83.744732,1.33,-25.656,-3.244
83.755405,1.82,-23.049,-3.922
83.766078,1.75,-20.219,-3.849
83.776751,2.38,-16.739,-3.023
83.787445,2.45,-12.924,-2.492
83.798139,1.61,-9.627,-1.84
83.808833,0.42,-7.267,-0.713
83.819527,-1.05,-6.464,0.779
83.830221,-2.87,-7.522,1.943
83.840915,-3.85,-9.298,3.549
83.851609,-4.06,-10.871,4.409
83.862303,-4.62,-12.347,4.718
83.872997,-5.04,-14.249,5.022
83.883691,-5.67,-15.485,5.586
83.894385,-6.72,-17.05,6.803
83.905079,-7.28,-17.517,7.431
83.915775,-8.33,-16.843,6.839
83.926471,-9.24,-14.492,5.192
83.937167,-9.52,-11.345,3.473
83.947863,-9.52,-8.065,2.203
83.958559,-10.15,-4.477,1.201
83.969255,-10.85,-1.285,0.84
83.979951,-11.83,1.675,1.788
83.990647,-12.74,4.27,2.388
84.001343,-12.67,5.244,4.123
84.012039,-13.23,5.13,6.378
84.022735,-12.95,5.232,7.817
84.033431,-13.37,7.292,7.825
84.044127,-14.28,7.771,8.336
84.05491,-16.1,8.196,9.548
84.065693,-17.71,8.383,11.714
84.076476,-19.88,8.225,13.818
84.087259,-21.42,8.347,15.546
84.098042,-22.61,9.252,16.061
84.108825,-21.63,11.518,14.896
84.119608,-18.41,14.827,13.063
84.130391,-14.91,19.125,11.262
84.141174,-9.94,22.19,10.808
84.151957,-6.44,24.145,11.01
84.16274,-6.3,23.675,10.856
84.173596,-7.35,21.947,10.978
84.184452,-7.14,20.487,10.792
84.195308,-5.95,21.294,9.441
84.206164,-3.99,23.568,6.217
84.21702,-0.91,27.047,3.419
84.227876,0.35,31.313,2.607
84.238732,-1.05,35.542,2.002
84.249588,-5.11,40.072,1.308
84.260444,-10.01,44.978,0.894
84.2713,-14.77,48.79,1.85
84.282156,-18.62,50.396,3.626
84.293012,-21.42,50.003,5.05
84.303922,-21.7,48.811,5.763
84.314832,-20.65,45.98,5.691
84.325742,-18.41,42.704,5.326
84.336652,-15.26,39.695,4.654
84.347562,-12.25,36.65,4.188
84.358472,-9.38,34.395,2.866
84.369382,-7.56,32.241,1.776
84.380292,-6.3,31.276,0.397
84.391202,-6.58,30.347,-1.188
84.402112,-6.93,29.621,-2.311
84.413022,-8.54,28.417,-2.737
84.423932,-9.94,27.679,-2.583
84.434842,-10.99,26.584,-2.42
84.445768,-12.32,25.4,-1.35
84.456694,-13.02,24.119,0.272
84.46762,-14,22.737,1.663
84.478546,-13.23,21.784,2.633
84.489472,-12.46,21.545,3.586
84.500398,-11.34,20.932,3.833
84.511324,-10.78,19.947,3.375
84.52225,-11.27,18.812,2.962
84.533176,-11.83,17.595,2.605
84.544102,-13.02,15.786,1.575
84.555028,-14.84,14.626,0.091
84.565954,-17.43,13.126,-0.671
84.57688,-20.23,11.994,-1.51
84.587811,-22.61,11.252,-0.93
84.598742,-24.43,10.616,-0.545
84.609673,-25.55,10.677,-0.89
84.620604,-25.69,12.805,-2.078
84.631535,-24.92,15.19,-3.506
84.642466,-23.59,17.557,-4.439
84.653397,-22.26,20.323,-4.804
84.664328,-21.07,23.49,-5.027
84.675259,-18.83,26.117,-5.417
84.68619,-16.52,28.279,-5.178
84.697121,-15.19,28.774,-2.745
84.708052,-13.44,27.594,0.317
84.718959,-13.09,25.729,2.831
84.729866,-13.09,24.189,5.118
84.740773,-13.3,23.183,6.789
84.75168,-12.46,23.273,7.089
84.762587,-11.83,23.933,6.566
84.773494,-11.41,24.392,6.789
84.784401,-10.92,25.065,7.405
84.795308,-10.43,26.261,7.474
84.806215,-9.59,28.362,9.266
84.817122,-8.54,30.159,11.573
84.828029,-7.49,30.771,14.951
84.838936,-5.11,30.869,18.024
84.849843,-3.57,29.329,21.52
84.860747,-2.66,26.693,23.969
84.871651,-0.42,24.889,24.931
84.882555,0.84,24.775,23.56
84.893459,0.98,26.052,21.155
84.904363,-1.54,26.616,18.767
84.915267,-5.46,25.829,16.78
84.926171,-10.36,23.554,15.17
84.937075,-14.28,21.1,14.169
84.947979,-17.85,19.656,12.28
84.958883,-19.74,18.975,10.098
84.969787,-19.67,17.993,8.006
84.980691,-18.97,16.643,5.991
84.991579,-17.57,15.13,6.506
85.002467,-15.54,12.308,10.416
85.013355,-10.71,8.883,14.929
85.024243,-9.66,6.665,15.818
85.035131,-9.8,9.389,12.46
85.046019,-7.7,16.728,6.717
85.056907,-4.55,23.106,1.586
85.067795,-3.36,25.846,-2.266
85.078683,-2.24,26.3,-5.243
85.089571,1.05,25.672,-4.501
85.100459,4.41,22.732,0.881
85.111347,7.35,17.66,6.668
85.122193,10.43,13.188,9.86
85.133039,15.68,11.919,8.996
85.143885,19.67,12.304,6.008
85.154731,21.35,12.741,1.109
85.165577,21.14,11.333,-4.612
85.176423,19.18,7.079,-8.703
85.187269,17.22,0.826,-9.521
85.198115,16.52,-6.599,-8.129
85.208961,14.84,-13.699,-6.965
85.219807,14.49,-17.032,-7.41
85.230653,15.96,-15.84,-9.332
85.241499,17.43,-13.31,-12.796
85.252345,17.43,-10.874,-16.133
85.263162,14,-7.634,-19.187
85.273979,11.9,-8.04,-18.903
85.284796,10.29,-8.927,-17.496
85.295613,9.94,-9.694,-17.987
85.30643,10.08,-10.902,-19.195
85.317247,10.71,-12.962,-19.203
85.328064,10.22,-15.185,-19.097
85.338881,8.4,-16.892,-19.895
85.349698,7.07,-15.566,-21.368
85.360515,5.67,-13.871,-21.708
85.371332,4.62,-12.05,-19.539
85.382149,5.11,-11.004,-17.009
85.392946,7.42,-9.507,-14.613
85.403743,11.2,-7.653,-12.225
85.41454,15.05,-5.139,-11.568
85.425337,18.2,-1.973,-13
85.436134,19.88,1.142,-13.73
85.446931,19.39,3.603,-13.581
85.457728,17.43,5.46,-14.035
85.468525,14.77,7.439,-13.97
85.479322,14,9.454,-14.113
85.490119,14.42,12.37,-15.731
85.500916,17.92,15.767,-18.473
85.511713,23.03,19.619,-22.982
85.52253,28.42,22.538,-26.235
85.533347,33.67,23.32,-27.447
85.544164,37.59,21.991,-26.758
85.554981,39.9,20.267,-24.645
85.565798,40.74,19.12,-22.573
85.576615,39.69,18.678,-20.874
85.587432,37.03,19.185,-20.926
85.598249,33.95,21.143,-23.566
85.609066,33.53,23.726,-26.523
85.619883,35.49,26.475,-28.81
85.6307,36.89,28.604,-29.999
85.641517,35.35,29.147,-30.258
85.652323,30.31,28.535,-30.011
85.663129,22.05,26.998,-29.358
85.673935,13.23,25.579,-27.76
85.684741,4.69,24.72,-26.916
85.695547,-3.64,23.284,-27.241
85.706353,-9.03,23.272,-28.38
85.717159,-11.83,23.304,-29.369
85.727965,-13.37,22.059,-29.163
85.738771,-13.37,18.698,-26.628
85.749577,-11.62,13.707,-22.106
85.760383,-11.06,8.334,-18.646
85.771189,-13.79,3.874,-16.731
85.781995,-17.29,1.032,-17.943
85.79278,-20.86,-1.629,-17.773
85.803565,-22.05,-3.952,-15.481
85.81435,-14.91,-5.715,-11.528
85.825135,-11.97,-6.826,-8.454
85.83592,-10.57,-10.004,-5.745
85.846705,-6.44,-14.987,-0.866
85.85749,-1.61,-20.85,4.569
85.868275,-0.77,-26.344,8.718
85.87906,-1.82,-30.419,10.061
85.889845,-0.07,-32.061,9.7
85.90063,4.9,-31.997,8.929
85.911415,10.5,-31.944,9.436
85.922158,16.31,-33.249,11.196
85.932901,22.68,-35.337,14.169
85.943644,26.53,-36.898,17.377
85.954387,26.53,-38.13,19.932
85.96513,20.86,-37.109,18.974
85.975873,13.79,-33.127,14.132
85.986616,6.93,-27.974,7.08
85.997359,1.26,-22.274,0.551
86.008102,-3.15,-16.873,-4.681
86.018845,-5.81,-12.065,-8.169
86.029588,-8.82,-8.034,-9.662
86.040331,-9.1,-4.912,-10.035
86.051074,-8.26,-2.99,-8.844
86.061769,-5.74,-2.328,-5.742
86.072464,-4.13,-2.782,-2.765
86.083159,-3.29,-3.062,-1.18
86.093854,-3.78,-2.271,-0.827
86.104549,-4.9,-1.294,-0.726
86.115244,-5.88,-0.43,-0.787
86.125939,-6.65,0.369,-0.077
86.136634,-6.72,0.835,0.503
86.147329,-6.02,0.933,1.16
86.158024,-3.01,0.592,1.881
86.168719,0.42,0.317,3.041
86.179414,2.87,-0.624,5.15
86.190109,4.76,-2.197,7.218
86.200781,5.88,-3.356,9.359
86.211453,5.67,-4.305,9.903
86.222125,5.67,-4.869,9.875
86.232797,5.95,-4.37,9.465
86.243469,5.81,-3.839,8.066
86.254141,5.88,-3.296,6.598
86.264813,5.39,-2.866,6.176
86.275485,2.66,-3.174,5.909
86.286157,-4.13,-3.726,5.811
86.296829,-5.39,-2.98,4.806
86.307501,-6.16,-1.962,3.066
86.318173,-6.58,-1.123,1.934
86.328878,-6.23,-0.884,2.19
86.339583,-7.28,-0.531,2.607
86.350288,-9.31,0.661,1.894
86.360993,-9.8,2.38,0.206
86.371698,-10.15,4.663,-1.452
86.382403,-9.45,6.694,-2.089
86.393108,-9.8,8.28,-1.81
86.403813,-10.99,9.261,-0.926
86.414518,-13.16,9.797,-0.334
86.425223,-15.61,10.219,0.096
86.435928,-18.83,10.867,-0.358
86.446646,-23.1,11.662,-1.64
86.457364,-25.76,11.848,-3.1
86.468082,-26.04,11.824,-4.17
86.4788,-23.87,11.398,-4.174
86.489518,-18.9,11.345,-3.473
86.500236,-8.89,12.12,-0.208
86.510954,-4.62,13.864,0.383
86.521672,-7.21,14.269,-3.526
86.53239,-7.42,16.106,-5.476
86.543108,-6.23,19.427,-6.17
86.553826,-11.9,21.652,-10.327
86.564544,-16.73,21.567,-12.261
86.575262,-13.37,19.556,-8.92
86.586009,-4.48,16.986,-3.615
86.596756,2.87,14.241,0.663
86.607503,6.23,10.365,2.894
86.61825,8.12,7.806,3.296
86.628997,10.36,7.867,1.743
86.639744,10.71,9.05,-1.745
86.650491,8.75,10.566,-6.311
86.661238,5.25,10.943,-9.656
86.671985,0.98,10.838,-10.67
86.682732,-2.66,9.658,-10.025
86.693479,-6.37,8.413,-8.61
86.704226,-11.2,7.197,-7.758
86.714971,-15.82,6.442,-7.109
86.725716,-19.53,5.169,-6.339
86.736461,-22.61,3.369,-4.595
86.747206,-24.36,1.662,-2.977
86.757951,-24.36,-0.045,-2.567
86.768696,-22.61,-1.379,-1.451
86.779441,-19.53,-2.94,-0.661
86.790186,-16.17,-4.059,-0.36
86.800931,-13.44,-4.578,-0.239
86.811676,-11.62,-4.858,0.139
86.822421,-11.41,-5.101,1.517
86.833166,-11.62,-6.236,3.521
86.843911,-12.53,-6.86,5.045
86.85467,-13.72,-6.897,6.461
86.865429,-15.75,-6.588,6.728
86.876188,-17.36,-6.098,5.962
86.886947,-17.64,-4.764,4.846
86.897706,-16.8,-3.633,3.269
86.908465,-14.42,-3.333,1.971
86.919224,-12.39,-3.937,1.367
86.929983,-10.71,-4.586,0.613
86.940742,-8.54,-5.174,-0.486
86.951501,-7,-5.15,-1.832
86.96226,-5.67,-4.915,-3.568
86.973019,-3.15,-3.804,-5.433
86.983812,-1.4,-1.814,-6.646
86.994605,-1.12,-0.326,-8.232
87.005398,-1.61,0.428,-10.089
87.016191,-1.47,1.495,-12.104
87.026984,0.49,2.472,-14.42
87.037777,4.97,3.534,-16.01
87.04857,9.17,5.224,-18.341
87.059363,12.46,4.896,-18.897
87.070156,18.06,2.974,-17.672
87.080949,26.04,1.162,-14.651
87.091742,33.39,-0.983,-10.551
87.102535,36.4,-3.083,-6.301
87.113329,36.05,-4.875,-2.992
87.124123,30.66,-5.665,-0.928
87.134917,20.86,-6.792,1.432
87.145711,7.98,-7.696,3.334
87.156505,-6.3,-9.89,4.085
87.167299,-20.79,-12.521,3.692
87.178093,-35,-15.802,2.545
87.188887,-46.13,-20.145,1.779
87.199681,-49.91,-23.369,1.921
87.210475,-54.74,-24.467,2.509
87.221269,-63.56,-27.707,6.772
87.232063,-69.58,-33.205,12.555
87.242857,-70.77,-36.416,13.837
87.25363,-68.95,-37.637,11.489
87.264403,-63.28,-37.532,7.669
87.275176,-52.22,-36.778,4.603
87.285949,-38.01,-36.214,4.632
87.296722,-24.15,-34.361,7.02
87.307495,-14.84,-32.353,10.146
87.318268,-7.84,-29.973,12.769
87.329041,-3.57,-26.773,12.765
87.339814,-2.17,-22.188,9.735
87.350587,-0.84,-16.487,4.414
87.36136,3.08,-11.07,-1.312
87.372133,8.19,-5.998,-7.099
87.382906,12.95,-2.361,-9.586
87.393658,16.87,-0.796,-9.594
87.40441,20.3,-0.346,-8.519
87.415162,22.05,0.315,-7.834
87.425914,18.9,0.477,-7.948
87.436666,13.86,0.591,-7.786
87.447418,7.77,0.915,-8.013
87.45817,1.61,2.213,-8.921
87.468922,-4.55,4.037,-10.803
87.479674,-9.45,6.583,-13.553
87.490426,-11.69,9.113,-15.808
87.501178,-10.85,11.06,-17.17
87.51193,-6.79,12.377,-17.791
87.522703,-0.42,13.878,-17.029
87.533476,6.23,14.851,-15.293
87.544249,11.34,15.14,-12.897
87.555022,12.11,15.484,-11.628
87.565795,10.57,16.551,-11.227
87.576568,9.17,17.321,-11.162
87.587341,8.68,18.392,-11.186
87.598114,7.7,19.661,-11.531
87.608887,8.26,20.338,-11.341
87.61966,10.57,19.126,-9.706
87.630433,13.93,16.547,-7.176
87.641206,15.54,13.778,-3.968
87.651979,14.14,10.875,-1.21
87.662735,10.43,8.876,0.854
87.673491,5.6,7.08,-0.244
87.684247,0.63,6.443,-2.276
87.695003,-2.24,5.729,-3.468
87.705759,-3.08,4.967,-3.176
87.716515,-3.78,4.294,-1.375
87.727271,-5.53,3.577,0.275
87.738027,-8.4,2.583,1.877
87.748783,-10.85,2.174,2.587
87.759539,-12.81,2.048,2.494
87.770295,-13.16,2.879,1.005
87.781051,-10.92,4.578,0.239
87.791793,-8.68,5.568,1.479
87.802535,-6.37,5.791,4.646
87.813277,-6.65,5.196,8.024
87.824019,-9.52,4.466,10.952
87.834761,-13.44,4.093,11.455
87.845503,-15.96,4.774,10.011
87.856245,-16.73,6.234,7.781
87.866987,-16.52,8.168,6.487
87.877729,-15.26,10.106,5.976
87.888471,-11.62,11.477,7.07
87.899213,-4.48,12.024,10.01
87.909955,-1.61,12.986,11.814
87.920678,-9.17,13.577,7.654
87.931401,-14.56,15.608,0.975
87.942124,-11.83,21.032,-6.811
87.952847,-14.35,26.233,-16.556
87.96357,-19.25,28.986,-24.103
87.974293,-14.49,27.38,-22.254
87.985016,0.56,22.593,-12.436
87.995739,10.29,16.524,-2.204
88.006462,12.81,8.755,5.169
88.017185,11.2,2.142,7.201
88.027908,7.35,-0.859,4.469
88.038631,3.36,-0.876,-1.079
88.049354,-1.75,0.186,-6.293
88.060076,-6.86,-0.074,-8.045
88.070798,-10.43,-0.929,-6.419
88.08152,-14.07,-3.208,-1.561
88.092242,-17.22,-5.559,4.919
88.102964,-19.46,-7.796,10.353
88.113686,-19.67,-8.923,13.922
88.124408,-18.62,-8.598,16.112
88.13513,-16.94,-7.597,16.075
88.145852,-14.42,-6.766,14.587
88.156574,-12.25,-5.464,12.044
88.167296,-10.78,-4.021,9.1
88.178018,-9.73,-3.523,6.274
88.188704,-9.87,-3.276,4.469
88.19939,-10.5,-3.763,3.601
88.210076,-10.22,-3.868,3.796
88.220762,-9.66,-4.277,4.506
88.231448,-8.82,-4.196,5.657
88.242134,-8.82,-3.738,5.88
88.25282,-8.96,-2.047,4.757
88.263506,-8.82,0.134,2.867
88.274192,-9.59,2.275,0.401
88.284878,-11.27,4.586,-3.03
88.295564,-12.67,6.455,-5.97
88.30625,-13.37,7.221,-7.896
88.316936,-13.72,7.306,-8.379
88.32762,-14.63,6.633,-7.787
88.338304,-17.57,5.441,-7.073
88.348988,-20.65,4.889,-5.962
88.359672,-23.03,4.221,-4.587
88.370356,-22.89,3.58,-3.776
88.38104,-22.12,3.008,-2.952
88.391724,-21.7,1.897,-2.295
88.402408,-19.67,0.166,-1.748
88.413092,-16.73,-1.205,-1.634
88.423776,-15.33,-3.005,-1.098
88.43446,-16.1,-4.477,-1.216
88.445144,-19.67,-6.671,-2.882
88.455796,-23.45,-8.553,-4.707
88.466448,-25.34,-9.461,-6.004
88.4771,-20.16,-9.745,-6.41
88.487752,-12.11,-8.119,-6.763
88.498404,-11.76,-7.503,-6.227
88.509056,-15.26,-9.704,-1
88.519708,-21.84,-12.931,3.193
88.53036,-28.77,-14.383,3.364
88.541012,-29.82,-13.535,1.381
88.551664,-22.89,-11.885,-0.319
88.562316,-11.83,-11.042,-0.668
88.572968,-1.61,-11.816,0.902
88.58362,5.11,-14.014,3.286
88.594262,7.98,-17.01,6.17
88.604904,9.8,-20.27,7.728
88.615546,10.22,-22.61,8.097
88.626188,9.52,-23.936,7.152
88.63683,8.47,-24.256,4.537
88.647472,9.03,-23.15,1.889
88.658114,9.73,-21.512,-0.95
88.668756,10.99,-20.283,-3.079
88.679398,12.32,-18.933,-4.689
88.69004,13.72,-16.395,-6.587
88.700682,16.31,-14.453,-7.524
88.711324,19.74,-13.091,-7.995
88.721985,22.96,-12.34,-7.009
88.732646,25.55,-13.094,-3.944
88.743307,28.28,-14.188,-0.156
88.753968,30.1,-15.117,3.092
88.764629,31.29,-16.41,5.992
88.77529,31.71,-17.087,7.009
88.785951,31.08,-16.608,6.312
88.796612,29.68,-15.615,4.71
88.807273,27.86,-14.297,4.089
88.817934,25.9,-14.042,5.059
88.828595,26.81,-14.37,6.92
88.839256,26.88,-14.877,8.181
88.849914,25.06,-14.516,7.747
88.860572,22.82,-13.778,6.384
88.87123,20.16,-12.022,4.491
88.881888,16.73,-10.097,2.84
88.892546,12.18,-8.037,1.639
88.903204,7.63,-6.37,0.654
88.913862,2.94,-5.036,-0.462
88.92452,-1.4,-3.82,-1.313
88.935178,-3.71,-2.944,-1.443
88.945836,-4.62,-1.756,-1.731
88.956494,-5.67,-0.88,-1.861
88.967152,-6.58,-0.442,-0.718
88.97781,-9.24,-0.259,0.665
88.988484,-13.02,-0.365,0.86
88.999158,-18.41,-0.701,1.156
89.009832,-23.45,-1.824,3.09
89.020506,-26.53,-3.754,6.375
89.03118,-23.8,-5.148,10.252
89.041854,-19.18,-5.213,12.231
89.052528,-15.19,-4.5,9.797
89.063202,-13.65,-2.659,6.213
89.073876,-10.29,-1.062,4.006
89.08455,-4.06,0.893,4.209
89.095224,-3.08,3.212,-0.073
89.105898,-7.07,4.776,-6.124
89.116572,-11.2,5.177,-8.399
89.127235,-11.76,3.166,-5.057
89.137898,-9.59,-0.105,0.195
89.148561,-6.23,-2.956,3.459
89.159224,-1.4,-5.66,5.897
89.169887,3.01,-6.661,7.142
89.18055,4.62,-7.063,7
89.191213,4.55,-6.832,5.69
89.201876,3.57,-6.025,4.34
89.212539,2.59,-5.583,5.057
89.223202,-0.07,-5.271,6.108
89.233865,-3.99,-5.076,6.213
89.244528,-7.7,-4.078,6.602
89.25517,-11.76,-2.89,6.314
89.265812,-14.84,-2.002,6.115
89.276454,-17.29,-1.354,5.661
89.287096,-17.57,-0.088,5.742
89.297738,-16.66,0.374,5.539
89.30838,-13.44,0.779,5.255
89.319022,-10.5,0.791,5.186
89.329664,-7.77,1.396,4.582
89.340306,-5.53,1.773,3.653
89.350948,-4.62,2.523,2.222
89.36159,-5.81,3.532,0.125
89.372232,-8.33,4.318,-1.513
89.382874,-10.85,4.987,-2.888
89.393502,-12.39,5.162,-3.07
89.40413,-14.07,5.263,-2.839
89.414758,-15.26,5.02,-2.669
89.425386,-15.26,3.99,-2.069
89.436014,-14.63,2.818,-1.067
89.446642,-15.61,1.731,-0.548
89.45727,-17.36,0.122,-0.689
89.467898,-19.81,-0.742,-1.837
89.478526,-22.96,-2.012,-2.7
89.489154,-24.78,-3.54,-2.899
89.499782,-25.2,-4.85,-1.921
89.51041,-23.87,-6.107,-1.645
89.521065,-22.82,-7.023,-0.883
89.53172,-23.45,-7.027,-0.457
89.542375,-26.18,-6.849,0.143
89.55303,-30.8,-6.735,0.305
89.563685,-36.12,-7.157,1.084
89.57434,-40.74,-7.514,2.3
89.584995,-43.61,-7.809,3.172
89.59565,-44.03,-7.676,3.622
89.606305,-36.26,-7.359,5.455
89.61696,-24.36,-5.656,6.679
89.627615,-17.08,-4.05,6.038
89.63827,-15.47,-4.545,7.231
89.648931,-19.81,-4.974,10.069
89.659592,-28.77,-5.838,10.13
89.670253,-36.54,-4.906,6.456
89.680914,-34.58,-2.388,0.645
89.691575,-21.98,0.685,-4.286
89.702236,-8.68,2.521,-8.654
89.712897,0.56,2.046,-9.59
89.723558,7.63,0.226,-6.926
89.734219,13.44,-1.217,-3.982
89.74488,17.22,-1.975,-2.907
89.755541,18.9,-1.614,-2.133
89.766202,18.69,-1.176,-2.198
89.776863,15.54,-0.791,-2.769
89.787541,11.48,-0.118,-3.362
89.798219,10.08,0.458,-3.402
89.808897,10.5,1.378,-4.59
89.819575,11.83,1.706,-6.452
89.830253,12.81,1.451,-7.421
89.840931,13.16,0.867,-7.737
89.851609,12.32,0.039,-7.883
89.862287,9.87,-0.212,-8.069
89.872965,5.39,-1.047,-8.572
89.883643,-0.42,-2.386,-9.448
89.894321,-6.93,-3.472,-10.137
89.904999,-12.25,-3.817,-11.406
89.91568,-15.54,-3.757,-12.959
89.926361,-16.59,-3.903,-13.34
89.937042,-16.52,-4.945,-12.671
89.947723,-15.12,-6.696,-9.995
89.958404,-11.2,-8.2,-6.706
89.969085,-6.23,-8.613,-4.362
89.979766,-0.14,-9.031,-2.801
89.990447,4.9,-8.609,-1.163
90.001128,7.91,-8.451,0.358
90.011809,8.89,-8.402,2.499
90.02249,8.33,-7.513,3.509
90.033171,6.44,-5.551,2.86
90.043852,2.8,-3.406,1.176
90.054553,-0.98,-1.338,0.333
90.065254,-3.01,-0.945,1.326
90.075955,-4.2,-0.876,2.547
90.086656,-4.9,-0.81,4.193
90.097357,-5.18,0.033,5.053
90.108058,-6.51,0.808,4.692
90.118759,-8.4,1.906,4.103
90.12946,-11.13,2.434,4.339
90.140161,-14.77,2.908,4.067
90.150862,-20.65,2.551,4.075
90.161563,-26.67,1.598,3.836
90.172264,-27.23,0.049,4.558
90.182959,-18.83,-0.83,6.322
90.193654,-12.04,-0.608,4.655
90.204349,-12.39,0.389,-2.206
90.215044,-12.46,2.452,-7.457
90.225739,-4.41,5.4,-7.648
90.236434,3.29,7.047,-5.297
90.247129,1.75,6.175,-4.384
90.257824,-2.66,4.517,-4.25
90.268519,-6.72,3.694,-2.405
90.279214,-7.07,1.578,2.34
90.289909,-4.83,-0.907,5.953
90.300604,-2.1,-2.002,6.115
90.311299,0.91,-2.594,6.651
90.32203,4.2,-3.032,6.715
90.332761,5.53,-2.947,6.233
90.343492,7.35,-2.14,6.091
90.354223,8.19,-1.877,5
90.364954,7.84,-1.654,4.542
90.375685,5.18,-2.631,4.441
90.386416,-0.42,-4.655,4.226
90.397147,-7.28,-6.009,3.845
90.407878,-14.56,-6.403,1.643
90.418609,-23.1,-6.366,-0.98
90.42934,-29.89,-5.669,-4.127
90.440071,-32.97,-5.252,-5.688
90.45079,-31.57,-4.859,-5.903
90.461509,-27.58,-4.169,-5.782
90.472228,-20.65,-3.792,-5.502
90.482947,-13.86,-2.855,-4.768
90.493666,-8.68,-1.323,-4.996
90.504385,-5.11,0.088,-5.742
90.515104,-4.34,1.788,-5.3
90.525823,-4.2,3.693,-6.03
90.536542,-5.18,5.668,-6.748
90.547261,-6.72,7.716,-6.672
90.55798,-7.98,8.932,-6.315
90.568699,-9.38,9.703,-5.042
90.579418,-10.71,9.014,-3.955
90.590137,-12.39,8.341,-3.363
90.600856,-13.44,7.149,-2.649
90.611575,-14.28,5.977,-2.856
90.622294,-14.42,4.671,-3.512
90.633013,-14.77,2.931,-3.321
90.643732,-14.49,1.593,-4.197
90.654451,-13.93,0.113,-4.671
90.66517,-13.65,-1.055,-4.095
90.675889,-13.37,-3.309,-3
90.686608,-12.18,-5.632,-0.709
90.697327,-11.2,-7.972,0.869
90.708046,-11.41,-10.458,2.065
90.718756,-11.9,-11.856,2.743
90.729466,-12.46,-12.282,2.739
90.740176,-14.07,-11.917,1.879
90.750886,-16.17,-11.889,1.315
90.761596,-16.94,-12.923,2.342
90.772306,-17.99,-14.378,4.146
90.783016,-17.85,-15.899,5.513
90.793726,-16.73,-15.7,5.193
90.804436,-11.06,-14.755,5.075
90.815146,-1.96,-12.002,4.778
90.825856,2.59,-9.168,3.217
90.836566,0.63,-8.454,4.409
90.847276,-8.12,-9.321,8.521
90.858004,-18.41,-9.463,10.131
90.868732,-24.36,-8.093,8.809
90.87946,-25.41,-5.883,5.147
90.890188,-21.35,-4.655,1.809
90.900916,-13.3,-4.862,0.564
90.911644,-2.17,-5.657,0.637
90.922372,7.28,-6.451,0.711
90.9331,15.68,-7.656,0.285
90.943828,22.75,-7.96,-0.408
90.954556,26.46,-7.83,-0.741
90.965284,26.53,-7.011,-0.952
90.976012,21.77,-6.233,-1.739
90.986757,14.84,-4.915,-3.568
90.997502,9.38,-2.6,-6.216
91.008247,5.32,-0.261,-10.21
91.018992,3.57,1.701,-13.276
91.029737,2.8,2.095,-13.491
91.040482,2.24,1.815,-11.906
91.051227,3.01,0.745,-9.464
91.061972,4.55,-0.524,-5.494
91.072717,6.93,-1.561,-1.626
91.083462,7.56,-2.023,0.994
91.094207,6.3,-2.631,2.024
91.104952,5.46,-2.262,1.947
91.11568,5.46,-1.229,0.921
91.126408,6.51,0.118,-0.264
91.137136,6.02,1.221,-0.069
91.147864,4.62,1.569,0.774
91.158592,3.99,1.987,0.421
91.16932,2.03,2.518,0.231
91.180048,-0.28,3.037,0.109
91.190776,-2.03,3.775,-0.045
91.201504,-5.18,4.112,-0.341
91.212232,-8.75,4.44,-0.994
91.22296,-12.32,4.862,-1.773
91.233688,-15.19,5.15,-1.793
91.244416,-15.75,5.361,-0.974
91.255166,-15.26,4.736,0.551
91.265916,-14.35,3.638,2.347
91.276666,-12.39,2.677,4.168
91.287416,-11.41,1.728,5.92
91.298166,-13.3,1.671,5.839
91.308916,-18.13,1.704,4.85
91.319666,-25.41,2.085,3.495
91.330416,-33.18,1.387,4.225
91.341166,-37.52,-0.246,6.638
91.351916,-32.27,-2.079,10.58
91.362666,-22.05,-2.751,13.589
91.373416,-15.54,-2.861,13.001
91.384182,-9.17,-1.365,8.147
91.394948,-7.49,2.624,2.453
91.405714,-6.02,6.516,-1.481
91.41648,-5.67,8.973,-2.114
91.427246,-9.1,9.273,-3.412
91.438012,-12.81,7.513,-3.509
91.448778,-14.07,5.052,-1.242
91.459544,-12.95,1.663,1.857
91.47031,-11.69,-0.661,2.94
91.481076,-11.62,-1.954,2.214
91.491842,-10.36,-2.076,1.695
91.502608,-9.59,-2.21,1.245
91.513349,-8.05,-1.918,0.799
91.52409,-7.21,-1.273,0.771
91.534831,-6.02,-0.62,1.099
91.545572,-5.67,-0.134,1.967
91.556313,-6.51,0.783,2.413
91.567054,-7.21,1.845,2.031
91.577795,-8.4,2.299,1.472
91.588536,-7.63,3.455,0.965
91.599277,-6.44,4.501,-0.13
91.610018,-5.74,5.125,-0.447
91.620759,-5.46,5.016,0.174
91.6315,-5.81,4.716,0.263
91.642241,-7.63,4.501,-0.13
91.652951,-10.22,4.1,-0.272
91.663661,-13.23,3.666,-0.633
91.674371,-15.89,3.244,-1.063
91.685081,-18.06,3.349,-2.466
91.695791,-19.18,3.061,-3.654
91.706501,-17.01,2.915,-4.035
91.717211,-13.86,2.424,-3.269
91.727921,-11.48,1.638,-2.839
91.738631,-10.78,0.924,-2.822
91.749341,-11.62,0.381,-2.563
91.760051,-14.63,-0.106,-2.222
91.770761,-18.69,-0.191,-1.74
91.781468,-24.22,-0.041,-2.993
91.792175,-29.33,0.064,-4.396
91.802882,-32.55,0.117,-5.097
91.813589,-32.9,-0.755,-4.185
91.824296,-31.85,-2.466,-2.141
91.835003,-29.82,-4.379,-0.559
91.84571,-27.93,-6.042,0.001
91.856417,-28.42,-7.335,0.484
91.867124,-29.33,-8.232,0.326
91.877831,-30.24,-8.71,-0.185
91.888538,-31.78,-9.602,-0.769
91.899245,-33.6,-10.697,-0.607
91.909952,-35.56,-11.703,-0.144
91.920659,-35.98,-11.869,0.395
91.931366,-33.81,-10.839,1.003
91.942073,-24.01,-8.815,1.218
91.95278,-13.86,-6.439,0.642
91.963487,-7.7,-5.843,2.097
91.974194,-6.58,-7.679,6.465
91.984901,-10.71,-10.477,10.236
91.995608,-17.29,-11.863,10.845
92.006315,-22.89,-11.876,7.288
92.017022,-24.15,-10.859,3.132
92.027729,-18.34,-8.694,0.528
92.03842,-10.78,-7.705,-0.648
92.049111,-3.43,-7.104,-0.826
92.059802,1.47,-6.662,-0.109
92.070493,5.32,-6.143,0.978
92.081184,6.79,-4.7,1.659
92.091875,6.65,-2.794,0.929
92.102566,5.32,-1.046,-0.113
92.113257,3.43,0.669,-1.375
92.123948,1.89,3.102,-3.078
92.134639,1.19,5.036,-5.58
92.14533,2.03,7.626,-8.18
92.156021,4.34,9.398,-10.569
92.166712,6.79,11.433,-11.631
92.177411,9.24,12.792,-11.676
92.18811,10.78,13.688,-12.726
92.198809,11.06,14.292,-13.331
92.209508,10.01,15.423,-13.7
92.220207,7.77,16.279,-14.118
92.230906,4.34,16.19,-14.418
92.241605,0.91,16.352,-14.531
92.252304,-0.63,16.611,-13.988
92.263003,-0.7,16.774,-12.893
92.273702,-0.91,16.089,-12.232
92.284401,-1.33,15.724,-11.372
92.2951,-2.17,15.282,-10.882
92.305809,-3.29,14.734,-10.196
92.316518,-4.48,14.706,-9.633
92.327227,-5.25,13.705,-8.388
92.337936,-4.34,12.703,-7.143
92.348645,-3.36,11.398,-5.383
92.359354,-2.59,9.906,-3.371
92.370063,-3.01,8.175,-1.615
92.380772,-3.22,6.439,-0.642
92.391481,-4.48,5.324,-0.767
92.40219,-7.21,5.02,-1.46
92.412899,-10.29,4.509,-2.19
92.423608,-13.3,3.207,-2.064
92.434291,-14.98,1.979,-1.144
92.444974,-15.26,0.807,-0.142
92.455657,-14.49,-0.551,-0.097
92.46634,-13.37,-1.354,-0.381
92.477023,-13.51,-1.395,-0.957
92.487706,-14.56,-1.363,-1.946
92.498389,-17.08,-1.124,-2.899
92.509072,-18.34,-0.88,-3.07
92.519755,-19.81,-0.568,-3.228
92.530438,-20.93,-0.329,-2.972
92.541121,-21.35,-0.357,-1.2
92.551804,-20.65,-0.478,1.906
92.562487,-14.56,-0.51,6.52
92.573142,-4.69,-0.278,10.044
92.583797,-3.5,0.046,8.609
92.594452,-6.09,1.631,4.055
92.605107,-3.22,5.454,0.109
92.615762,9.24,7.461,-0.39
92.626417,12.18,6.378,-0.297
92.637072,7.77,4.339,-1.225
92.647727,3.71,2.096,-0.199
92.658382,3.64,-1.131,3.994
92.669037,7.84,-4.97,9.643
92.679692,12.04,-8.42,13.087
92.690347,13.65,-11.21,13.59
92.701002,14.42,-12.524,13.785
92.711648,13.72,-12.407,12.313
92.722294,13.16,-10.87,10.451
92.73294,11.41,-9.451,8.853
92.743586,9.24,-8.105,7.669
92.754232,5.6,-7.716,6.672
92.764878,0.42,-7.104,5.216
92.775524,-4.62,-5.433,3.804
92.78617,-9.66,-3.499,2.511
92.796816,-13.65,-1.593,1.78
92.807462,-15.89,-0.182,1.034
92.818108,-17.64,1.075,0.758
92.828754,-17.92,2.019,0.64
92.839397,-14.84,2.648,1.107
92.85004,-10.85,3.127,1.618
92.860683,-7.28,4.165,1.374
92.871326,-5.04,4.744,0.908
92.881969,-4.34,5.219,0.636
92.892612,-4.97,5.32,0.867
92.903255,-6.37,5.705,0.295
92.913898,-7.14,5.847,-0.106
92.924541,-8.19,5.669,-0.706
92.935184,-7.84,5.454,-1.1
92.945827,-7.28,4.85,-1.704
92.95647,-7.91,3.86,-1.736
92.967121,-8.47,2.737,-2.218
92.977772,-9.38,1.52,-2.575
92.988423,-11.76,0.786,-4.055
92.999074,-14.49,0.425,-6.038
93.009725,-17.5,-0.09,-7.55
93.020376,-20.16,-0.921,-7.27
93.031027,-21.28,-1.907,-5.312
93.041678,-21.42,-3.488,-2.392
93.052329,-20.72,-6.062,0.921
93.06298,-21,-8.174,4.032
93.073631,-22.05,-10.55,5.816
93.084282,-25.2,-11.852,5.942
93.094933,-29.75,-12.051,5.054
93.105601,-35.42,-11.86,3.169
93.116269,-41.16,-11.24,0.861
93.126937,-44.66,-10.904,-0.643
93.137605,-42.77,-10.065,-0.566
93.148273,-32.76,-8.88,0.78
93.158941,-24.43,-7.303,-0.506
93.169609,-19.32,-8.702,0.172
93.180277,-18.2,-12.172,4.535
93.190945,-21.77,-15.976,7.561
93.201613,-26.67,-18.169,7.103
93.212281,-31.08,-18.142,2.914
93.222949,-28.14,-16.338,-1.672
93.23364,-16.94,-13.95,-4.734
93.244331,-5.32,-12.425,-6.527
93.255022,2.66,-11.712,-6.543
93.265713,10.29,-11.136,-5.375
93.276404,16.66,-9.733,-4.062
93.287095,20.16,-6.918,-3.494
93.297786,21.77,-4.189,-3.653
93.308477,21.21,-1.112,-4.176
93.319168,19.46,1.07,-3.65
93.329859,18.06,2.449,-3.407
93.34055,17.22,4.103,-3.115
93.351241,16.94,5.668,-3.123
93.361917,16.52,7.675,-4.831
93.372593,16.1,9.954,-7.272
93.383269,15.05,11.405,-9.859
93.393945,14.21,11.389,-10.573
93.404621,14.28,10.493,-9.523
93.415297,15.47,8.798,-7.973
93.425973,15.89,6.625,-5.727
93.436649,15.89,4.278,-3.297
93.447325,14.21,2.705,-1.229
93.458001,12.04,1.156,-0.507
93.468677,9.17,0.409,-0.71
93.479353,7.77,-0.264,-1.326
93.490029,6.58,-0.767,-1.699
93.500705,5.18,-2.214,-1.954
93.511401,3.71,-3.654,-0.644
93.522097,0.35,-4.793,0.576
93.532793,-4.76,-6.095,0.702
93.543489,-9.94,-6.293,-0.186
93.554185,-14.28,-5.965,-2.047
93.564881,-17.08,-5.527,-3.32
93.575577,-18.41,-5.827,-3.231
93.586273,-17.15,-6.172,-2.083
93.596969,-14.77,-5.953,-0.907
93.607665,-17.92,-5.904,-1.183
93.618361,-26.39,-5.775,-1.516
93.629057,-35.84,-6.212,-1.451
93.639763,-46.27,-7.469,-1.175
93.650469,-58.31,-10.243,0.042
93.661175,-72.45,-14.792,2.865
93.671881,-91.28,-21.353,6.613
93.682587,-108.43,-29.085,12.57
93.693293,-114.73,-37.214,21.586
93.703999,-112.07,-43.514,28.294
93.714705,-114.52,-48.149,25.557
93.725411,-118.86,-51.557,15.858
93.736117,-117.67,-52.641,6.284
93.746823,-113.19,-52.857,-1.359
93.757529,-112.28,-53.592,-8.881
93.768268,-113.19,-55.843,-15.462
93.779007,-111.79,-59.502,-19.306
93.789746,-106.96,-64.765,-18.883
93.800485,-102.83,-70.462,-15.196
93.811224,-99.96,-75.688,-13.772
93.821963,-97.65,-79.784,-13.926
93.832702,-94.15,-82.168,-14.915
93.843441,-89.46,-83.417,-15.491
93.85418,-83.37,-83.223,-16.594
93.864919,-75.95,-83.121,-16.362
93.875658,-68.46,-82.643,-13.435
93.886397,-62.16,-82.468,-9.992
93.897138,-58.17,-81.977,-7.133
93.907879,-54.67,-80.48,-4.737
93.91862,-50.47,-78.558,-3.545
93.929361,-45.99,-74.628,-2.852
93.940102,-44.03,-70.35,-2.525
93.950843,-43.33,-66.551,-2.708
93.961584,-42,-62.427,-3.118
93.972325,-39.9,-57.367,-4.002
93.983066,-36.61,-52.087,-3.711
93.993807,-33.81,-46.345,-2.414
94.004548,-29.61,-40.968,-1.466
94.015289,-26.18,-35.676,-1.244
94.02603,-21.14,-31.236,-2.238
94.036785,-15.26,-26.269,-4.205
94.04754,-10.43,-20.56,-5.544
94.058295,-6.3,-14.554,-5.338
94.06905,-3.85,-7.977,-5.956
94.079805,-3.64,-2.093,-6.269
94.09056,-4.62,2.586,-4.591
94.101315,-5.67,6.715,-1.801
94.11207,-7.56,10,1.337
94.122825,-10.85,14.761,4.166
94.13358,-15.68,20.621,6.408
94.144335,-19.53,27.384,7.956
94.15509,-20.51,34.067,9.561
94.165847,-18.83,38.479,11.547
94.176604,-16.73,41.768,11.843
94.187361,-13.72,44.306,11.153
94.198118,-11.06,46.654,9.932
94.208875,-9.66,48.653,10.285
94.219632,-9.45,49.464,12.134
94.230389,-10.22,48.666,13.841
94.241146,-12.46,46.249,15.05
94.251903,-13.86,43.233,16.437
94.26266,-13.79,40.905,17.946
94.273417,-11.76,40.305,18.124
94.284174,-9.59,41.169,16.855
94.294931,-6.79,41.886,15.204
94.305701,-1.05,42.08,12.893
94.316471,2.94,41.512,9.665
94.327241,4.34,39.01,10.148
94.338011,5.11,34.571,14.768
94.348781,2.17,29.04,17.915
94.359551,-4.9,24.138,19.112
94.370321,-12.39,20.602,18.204
94.381091,-18.9,18.533,15.423
94.391861,-20.44,18.557,12.868
94.402631,-15.82,20.053,10.431
94.413401,-10.15,22.701,7.912
94.424171,-5.81,23.086,7.34
94.434949,0.07,21.038,8.472
94.445727,6.51,18.103,9.802
94.456505,10.22,15.86,9.62
94.467283,11.83,13.731,8.392
94.478061,12.25,12.774,6.162
94.488839,12.18,11.89,4.726
94.499617,12.88,11.934,3.668
94.510395,13.44,12.749,2.675
94.521173,13.37,13.808,2.719
94.531951,12.32,15.065,3.651
94.542729,10.43,16.119,5.33
94.553507,8.12,15.815,7.053
94.564289,5.6,15.584,8.363
94.575071,2.73,16.465,9.016
94.585853,2.59,18.472,8.517
94.596635,3.5,20.957,7.32
94.607417,6.02,22.737,6.497
94.618199,8.33,24.521,6.456
94.628981,10.15,25.109,6.347
94.639763,11.06,25.515,6.063
94.650545,10.71,25.961,5.146
94.661327,8.75,26.897,3.463
94.672109,5.74,27.676,1.468
94.682891,3.43,28.608,1.419
94.693673,2.03,30.303,2.287
94.704418,1.96,31.654,3.094
94.715163,2.87,33.041,3.694
94.725908,5.04,35.02,4.967
94.736653,7.56,36.139,5.875
94.747398,9.94,36.727,5.765
94.758143,11.83,36.666,4.901
94.768888,14,35.867,4.192
94.779633,15.4,34.148,3.462
94.790378,16.8,30.904,4.525
94.801123,19.46,27.4,6.253
94.811868,21.84,23.934,7.774
94.822613,22.33,20.451,8.582
94.833358,21.7,16.651,9.973
94.844065,21,13.525,9.564
94.854772,20.93,11.229,7.666
94.865479,21.98,9.554,4.67
94.876186,23.59,8.236,1.665
94.886893,24.15,6.459,-1.562
94.8976,24.64,4.561,-4.1
94.908307,23.03,2.611,-4.728
94.919014,18.41,1.297,-4.534
94.929721,11.2,0.81,-4.193
94.940428,7.35,-0.146,-2.798
94.951135,8.05,-0.994,-2.023
94.961842,8.75,-1.44,-2.315
94.972517,9.31,-0.232,-3.524
94.983192,10.92,2.761,-5.981
94.993867,13.3,5.858,-8.634
95.004542,14.84,7.505,-8.699
95.015217,15.4,7.485,-6.57
95.025892,14.63,6.22,-3.026
95.036567,12.32,3.946,1.407
95.047242,8.96,1.396,5.79
95.057917,6.72,-0.814,8.244
95.068592,6.23,-2.318,9.116
95.079267,7.28,-3.052,8.844
95.089942,8.54,-3.892,7.559
95.100617,9.66,-4.825,6.399
95.111265,11.13,-5.084,5.856
95.121913,13.16,-5.595,5.126
95.132561,16.03,-6.427,4.198
95.143209,18.9,-6.159,3.89
95.153857,22.26,-5.385,3.529
95.164505,23.73,-4.201,2.458
95.175153,23.03,-3.061,1.237
95.185801,21.28,-1.407,-0.888
95.196449,18.34,-0.102,-2.648
95.207097,14.98,1.317,-3.037
95.217745,6.23,3.657,-4.615
95.228393,1.75,4.914,-6.099
95.239104,-1.68,6.386,-7.19
95.249815,-3.92,7.245,-8.034
95.260526,-4.76,8.409,-8.184
95.271237,-5.39,8.981,-7.799
95.281948,-5.39,9.423,-7.081
95.292659,-4.62,9.682,-6.538
95.30337,-5.39,10.668,-6.08
95.314081,-7.28,11.459,-5.727
95.324792,-9.8,12.306,-5.293
95.335503,-12.39,13.389,-5.387
95.346214,-14.56,14.536,-6.251
95.356975,-17.36,16.008,-7.342
95.367736,-19.67,16.961,-8.311
95.378497,-21.77,17.861,-8.579
95.389258,-23.52,17.804,-7.451
95.400019,-25.06,17.225,-5.777
95.41078,-26.04,16.523,-4.621
95.421541,-25.62,16.078,-3.704
95.432302,-24.29,15.198,-3.149
95.443063,-22.96,14.054,-2.711
95.453824,-22.26,12.675,-2.954
95.464585,-22.47,11.512,-2.804
95.475346,-21.28,11.049,-2.601
95.486107,-20.51,10.109,-1.7
95.496922,-22.33,9.322,-0.062
95.507737,-25.9,8.179,1.584
95.518552,-29.89,7.311,2.071
95.529367,-33.11,6.971,1.585
95.540182,-35.28,6.983,0.307
95.550997,-35.7,6.853,-1.777
95.561812,-35.42,6.273,-3.727
95.572627,-35.35,4.505,-4.181
95.583442,-35.28,1.784,-3.666
95.594257,-35.91,-0.378,-3.905
95.605072,-38.08,-2.689,-4.099
95.615887,-41.65,-4.741,-3.75
95.626701,-43.47,-6.095,-4.131
95.637515,-43.47,-6.339,-5.169
95.648329,-37.24,-6.051,-5.19
95.659143,-27.3,-4.927,-4.707
95.669957,-21.35,-4.485,-2.781
95.680771,-20.09,-5.973,2.43
95.691585,-25.97,-7.776,7.016
95.702399,-35.77,-8.206,7.438
95.713213,-43.68,-5.628,3.699
95.724027,-45.36,-1.363,-1.946
95.734841,-40.18,2.29,-6.136
95.745655,-30.45,3.734,-6.663
95.756469,-18.76,3.106,-3.504
95.767269,-9.31,1.703,1.224
95.778069,-1.68,0.881,5.486
95.788869,4.06,0.897,8.617
95.799669,5.74,2.126,10.113
95.810469,3.78,3.849,9.208
95.821269,-0.28,5.605,7.314
95.832069,-6.44,6.752,5.242
95.842869,-12.95,6.995,2.655
95.853669,-19.25,7.194,-0.082
95.864469,-24.01,7.124,-2.511
95.875269,-27.44,6.998,-5.021
95.886069,-29.96,6.868,-7.105
95.896869,-33.88,7.768,-8.581
95.907671,-37.87,9.163,-10.041
95.918473,-41.51,10.914,-11.51
95.929275,-44.24,12.638,-12.414
95.940077,-45.36,14.389,-13.882
95.950879,-44.45,16.53,-13.931
95.961681,-41.44,18.643,-13.417
95.972483,-35.84,19.669,-12.383
95.983285,-28.91,20.484,-10.959
95.994087,-21,20.987,-8.17
96.004889,-14.63,20.769,-4.512
96.015691,-9.38,21.021,-1.909
96.026493,-4.48,21.739,0.066
96.037292,-0.98,21.78,1.85
96.048091,1.47,21.058,3.926
96.05889,3.22,19.351,6.753
96.069689,5.39,17.32,9.807
96.080488,5.74,16.656,11.964
96.091287,5.53,16.153,12.799
96.102086,5.95,17.945,11.907
96.112885,5.53,20.463,9.721
96.123684,4.55,22.689,7.981
96.134483,3.22,23.662,7.3
96.145282,4.62,22.498,9.867
96.156081,13.09,20.326,14.53
96.16685,28.98,18.716,16.805
96.177619,30.73,18.257,11.749
96.188388,38.22,20.592,5.763
96.199157,53.62,24.415,-1.808
96.209926,56.7,26.786,-11.625
96.220695,56.56,27.503,-16.901
96.231464,59.5,24.648,-14.419
96.242233,61.25,18.721,-7.006
96.253002,60.97,10.641,1.734
96.263771,61.81,1.968,8.592
96.27454,65.66,-3.644,11.796
96.285309,71.05,-4.881,11.152
96.296078,71.33,-3.746,6.732
96.306813,67.97,-2.49,0.414
96.317548,62.16,-1.477,-4.525
96.328283,55.44,-1.481,-6.516
96.339018,46.9,-2.41,-6.893
96.349753,37.8,-4.19,-6.07
96.360488,29.82,-6.704,-5.518
96.371223,23.94,-7.766,-5.137
96.381958,20.79,-7.089,-6.154
96.392693,19.39,-5.666,-8.178
96.403428,19.18,-3.314,-9.825
96.414163,18.55,-0.825,-11.447
96.424898,17.36,1.405,-12.404
96.435618,17.01,3.871,-12.68
96.446338,16.38,6.279,-13.038
96.457058,15.05,8.303,-12.823
96.467778,13.51,9.629,-11.878
96.478498,10.57,10.691,-11.051
96.489218,8.26,10.659,-10.062
96.499938,5.67,10.367,-8.407
96.510658,4.76,10.473,-6.185
96.521378,4.34,10.263,-4.588
96.532098,4.41,10.157,-4.393
96.542818,3.85,10.007,-4.348
96.553538,3.5,9.687,-5.755
96.564231,4.41,9.224,-6.761
96.574924,6.16,9.013,-7.58
96.585617,7.49,8.571,-8.298
96.59631,8.05,6.418,-8.18
96.607003,8.47,3.377,-7.863
96.617696,8.19,1.933,-8.544
96.628389,6.58,1.268,-10.012
96.639082,4.41,0.805,-11.018
96.649775,6.44,0.891,-10.292
96.660468,8.75,2.756,-11.598
96.671161,0.07,3.595,-15.146
96.681854,-4.9,2.812,-13.933
96.692514,-0.42,3.174,-9.534
96.703174,2.59,4.962,-8.792
96.713834,-1.19,4.512,-8.658
96.724494,-5.6,2.444,-5.398
96.735154,-7.21,-0.106,-2.222
96.745814,-7.98,-1.375,0.54
96.756474,-7.07,-2.652,2.944
96.767134,-2.66,-4.277,4.506
96.777794,3.01,-6.086,5.893
96.788454,9.31,-7.229,7.539
96.799114,15.61,-8.453,9.243
96.809774,21.21,-9.601,10.106
96.820434,23.66,-9.69,8.598
96.831062,23.73,-9.22,6.335
96.84169,24.29,-7.59,4.348
96.852318,23.31,-5.835,2.454
96.862946,21.56,-5.024,0.678
96.873574,19.18,-4.088,-1.005
96.884202,16.1,-3.398,-2.092
96.89483,13.16,-3.69,-1.646
96.905458,10.78,-3.325,-1.297
96.916086,8.33,-3.2,-1.204
96.926714,5.81,-3.037,-1.317
96.937342,3.5,-1.793,-2.733
96.94797,1.4,-0.147,-4.006
96.958587,0.49,1.236,-4.189
96.969204,-0.49,2.818,-4.692
96.979821,-0.14,3.892,-5.142
96.990438,-0.07,4.59,-4.664
97.001055,0.84,4.89,-3.545
97.011672,0.91,5.133,-2.507
97.022289,0.63,5.259,-2.413
97.032906,0.14,5.373,-2.251
97.043523,-1.05,5.766,-2.466
97.05414,-2.66,5.364,-2.608
97.064757,-4.69,4.391,-1.927
97.075374,-6.37,2.802,-0.572
97.085991,-8.61,1.075,0.758
97.096608,-9.45,-0.417,1.561
97.107225,-9.24,-1.314,1.403
97.117842,-9.45,-2.072,1.27
97.128459,-9.17,-3.175,1.075
97.139076,-10.43,-4.047,0.779
97.149693,-12.04,-4.473,0.775
97.16031,-13.44,-4.728,1.014
97.170927,-15.26,-5.223,0.998
97.181544,-17.29,-5.259,1.205
97.192161,-18.69,-5.178,2.357
97.202778,-16.24,-4.707,3.719
97.213395,-13.86,-4.731,5.065
97.224014,-15.33,-5.109,4.786
97.234633,-18.27,-4.942,4.246
97.245252,-17.43,-4.719,4.996
97.255871,-12.25,-4.849,6.537
97.26649,-11.62,-4.975,5.236
97.277109,-15.26,-3.698,1.623
97.287728,-18.34,-0.706,0.373
97.298347,-19.74,1.484,1.257
97.308966,-19.74,2.45,2.635
97.319585,-19.67,2.584,4.294
97.330204,-18.13,2.174,6.212
97.340823,-14.21,1.169,9.091
97.351464,-9.45,0.764,10.583
97.362105,-4.41,0.294,11.638
97.372746,0.42,0.391,11.086
97.383387,3.01,-0.112,9.505
97.394028,4.13,0.135,6.492
97.404669,4.76,0.252,3.812
97.41531,3.92,0.353,1.626
97.425951,2.52,0.564,0.028
97.436592,0.98,0.519,-1.33
97.447233,-0.49,0.259,-1.873
97.457874,-2.94,-0.146,-1.59
97.468515,-5.81,-0.15,-1.164
97.479184,-7.35,0.012,-1.277
97.489853,-8.12,0.843,-1.557
97.500522,-8.33,1.808,-1.387
97.511191,-7.63,2.664,-1.805
97.52186,-7.77,3.495,-2.085
97.532529,-8.54,4.347,-2.077
97.543198,-8.61,4.918,-1.692
97.553867,-9.1,5.142,-0.941
97.564536,-9.17,4.988,-0.471
97.575205,-9.1,4.74,0.125
97.585874,-8.82,4.83,0.425
97.596543,-8.89,5.032,-0.321
97.607205,-8.89,5.523,-1.088
97.617867,-9.31,5.912,-2.085
97.628529,-10.15,6.934,-3.042
97.639191,-10.22,7.773,-4.174
97.649853,-10.92,8.344,-4.997
97.660515,-12.32,9.042,-5.727
97.671177,-13.72,9.974,-5.776
97.681839,-15.96,10.769,-5.849
97.692501,-17.36,11.288,-5.971
97.703163,-19.46,12.351,-6.352
97.713825,-20.79,13.831,-7.086
97.724487,-22.54,15.087,-8.57
97.735149,-22.75,16.336,-9.203
97.745804,-16.8,17.918,-8.498
97.756459,-8.68,20.233,-8.729
97.767114,-5.6,21.689,-11.742
97.777769,-6.09,22.073,-13.522
97.788424,-10.36,22.584,-14.001
97.799079,-15.96,23.245,-14.524
97.809734,-19.88,24.802,-14.889
97.820389,-21.49,26.148,-16.074
97.831044,-19.6,27.344,-17.213
97.841699,-16.03,28.488,-17.651
97.852354,-11.97,28.768,-16.82
97.863009,-8.96,28.472,-14.74
97.873677,-5.81,28.075,-12.891
97.884345,-4.06,27.937,-11.707
97.895013,-2.8,28.152,-11.313
97.905681,-3.64,28.768,-11.987
97.916349,-5.04,29.952,-13.057
97.927017,-5.74,31.542,-14.412
97.937685,-6.44,32.519,-15.519
97.948353,-7.07,33.346,-16.581
97.959021,-7.21,34.295,-18.333
97.969689,-7.84,35.572,-19.53
97.980357,-8.4,36.119,-20.215
97.991025,-8.05,36.78,-20.738
98.001735,-8.54,37.571,-21.594
98.012445,-8.96,38.507,-22.069
98.023155,-9.24,39.018,-22.547
98.033865,-9.1,39.638,-22.438
98.044575,-8.54,39.634,-22.012
98.055285,-7.28,39.756,-21.493
98.065995,-5.81,39.939,-21.319
98.076705,-4.13,39.987,-20.386
98.087415,-3.29,39.57,-18.825
98.098125,-2.24,38.585,-16.866
98.108835,-2.24,37.77,-14.664
98.119545,-4.41,36.976,-13.383
98.130266,-7.28,36.343,-12.215
98.140987,-11.06,35.913,-11.793
98.151708,-14.63,35.374,-11.959
98.162429,-17.36,34.543,-11.679
98.17315,-18.48,33.185,-10.426
98.183871,-18.13,31.137,-9.294
98.194592,-17.71,28.7,-8.373
98.205313,-16.73,26.462,-7.773
98.216034,-14.98,24.442,-7.205
98.226755,-14,23.279,-7.055
98.237476,-11.69,22.212,-6.248
98.248197,-5.53,21.434,-4.253
98.258918,0.77,22.002,-3.442
98.269664,-3.36,22.456,-6.418
98.28041,-8.05,24.41,-9.841
98.291156,-11.55,27.009,-12.084
98.301902,-13.65,27.726,-12.526
98.312648,-15.47,25.565,-10.348
98.323394,-17.71,21.973,-6.503
98.33414,-17.99,18.113,-2.35
98.344886,-16.45,15.458,-0.189
98.355632,-13.44,14.334,0.537
98.366378,-9.8,13.341,0.931
98.377124,-6.58,12.429,1.267
98.38787,-2.66,11.877,1.17
98.398627,-0.63,11.877,1.17
98.409384,0.77,11.849,1.734
98.420141,2.17,12.003,2.472
98.430898,2.38,11.659,3.619
98.441655,2.73,12.182,4.28
98.452412,1.61,12.239,5.57
98.463169,0.42,12.081,6.466
98.473926,-0.63,12.713,6.506
98.484683,-2.17,12.831,6.243
98.49544,-4.2,13.52,5.156
98.506197,-6.02,15.061,2.869
98.516954,-7.42,16.451,0.626
98.527711,-8.19,17.923,-1.673
98.53847,-7.98,19.301,-3.847
98.549229,-6.58,19.938,-5.441
98.559988,-4.55,20.294,-5.449
98.570747,-2.73,19.471,-4.812
98.581506,-1.61,18.069,-3.709
98.592265,-0.84,16.013,-1.726
98.603024,0.42,14.245,0.237
98.613783,1.12,12.903,0.996
98.624542,1.61,11.833,1.02
98.635301,1.12,10.916,0.574
98.64606,0.14,10.417,-0.224
98.656819,-1.54,9.651,-0.715
98.667607,-3.57,8.763,-0.516
98.678395,-6.02,7.372,0.518
98.689183,-7.7,5.738,1.723
98.699971,-8.96,4.684,2.461
98.710759,-9.94,3.893,2.108
98.721547,-10.36,4.084,1.431
98.732335,-10.71,4.469,0.859
98.743123,-10.85,5.239,-0.285
98.753911,-10.92,6.419,-2.138
98.764699,-11.62,8.081,-3.906
98.775487,-12.74,9.545,-5.354
98.786275,-12.46,11.588,-6.06
98.797046,-8.12,14.22,-6.875
98.807817,-8.82,16.519,-10.237
98.818588,-15.33,17.901,-12.837
98.829359,-18.34,18.339,-11.693
98.84013,-14.49,19.313,-8.749
98.850901,-11.9,21.141,-9.848
98.861672,-12.53,21.77,-11.799
98.872443,-13.44,21.137,-10.631
98.883214,-13.93,19.99,-8.559
98.893985,-15.75,18.697,-6.868
98.904756,-15.89,17.245,-5.489
98.915527,-13.58,16.017,-4.568
98.926298,-9.45,15.408,-3.538
98.937049,-4.62,14.861,-2.853
98.9478,-1.82,14.926,-2.415
98.958551,1.4,14.642,-1.612
98.969302,4.55,15.198,-0.732
98.980053,6.16,15.721,-0.071
98.990804,6.86,16.09,-0.148
99.001555,6.58,16.99,-0.416
99.012306,6.09,18.219,-1.337
99.023057,6.3,19.614,-2.797
99.033808,5.11,19.832,-5.246
99.044559,3.29,20.534,-6.402
99.05531,1.33,20.894,-8.044
99.06605,-0.35,21.381,-9.593
99.07679,-1.82,21.607,-11.685
99.08753,-3.29,22.438,-13.174
99.09827,-4.27,23.083,-14.411
99.10901,-4.41,23.955,-15.323
99.11975,-3.29,24.445,-16.09
99.13049,-1.26,25.094,-16.544
99.14123,0.35,25.569,-15.607
99.15197,1.75,24.944,-14.082
99.16271,3.29,23.578,-11.978
99.17345,3.36,22.151,-9.528
99.18419,2.31,20.846,-7.768
99.19492,2.03,19.937,-6.649
99.20565,0.98,18.989,-6.105
99.21638,0.49,18.247,-6.734
99.22711,0.35,17.675,-7.119
99.23784,0,17.058,-7.654
99.24857,-0.42,16.422,-8.477
99.2593,-1.19,15.61,-9.118
99.27003,-2.45,14.021,-8.972
99.28076,-3.43,12.744,-7.775
99.29149,-5.46,12.042,-6.619
99.30222,-6.65,11.568,-6.348
99.31295,-7.49,11.382,-6.096
99.323649,-8.26,11.609,-5.772
99.334348,-9.52,11.467,-5.37
99.345047,-10.22,10.83,-4.985
99.355746,-10.85,10.4,-4.563
99.366445,-12.18,10.271,-4.231
99.377144,-13.93,10.149,-4.75
99.387843,-14.63,10.534,-5.322
99.398542,-14.35,10.469,-5.76
99.409241,-13.58,10.53,-6.104
99.41994,-11.83,10.96,-6.526
99.430639,-10.08,11.41,-7.868
99.441338,-8.82,12.533,-9.803
99.452037,-6.58,14.102,-11.445
99.462707,-3.43,16.303,-13.047
99.473377,-2.59,18.521,-13.936
99.484047,-4.9,19.498,-15.043
99.494717,-7,19.616,-15.306
99.505387,-7.84,19.296,-14.297
99.516057,-8.96,18.562,-13.36
99.526727,-10.99,18.136,-13.364
99.537397,-12.95,17.873,-13.481
99.548067,-13.09,17.929,-13.4
99.558737,-12.46,18.156,-13.076
99.569407,-9.94,18.834,-12.885
99.580077,-6.37,19.665,-11.957
99.590741,-2.73,20.192,-10.513
99.601405,1.12,20.395,-8.843
99.612069,3.08,20.761,-7.286
99.622733,4.27,20.631,-5.745
99.633397,4.69,20.339,-4.09
99.644061,4.55,19.715,-2.566
99.654725,3.92,19.01,-0.984
99.665389,3.78,17.651,0.269
99.676053,2.73,16.63,1.226
99.686717,1.75,15.288,1.985
99.697381,0.84,13.937,2.386
99.708045,0.14,13.52,1.531
99.718705,-1.12,13.929,-0.387
99.729365,-1.19,14.358,-2.017
99.740025,-0.84,14.456,-3.777
99.750685,0.14,14.273,-5.16
99.761345,0.63,13.936,-6.072
99.772005,0.28,13.518,-6.928
99.782665,0.56,13.178,-7.414
99.793325,1.05,12.93,-8.027
99.803985,1.05,13.096,-8.566
99.814645,1.26,13.332,-9.093
99.825305,0.7,13.802,-8.939
99.835965,1.12,13.81,-8.582
99.846625,0.77,13.68,-8.25
99.857298,-0.07,14.021,-7.763
99.867971,-1.96,13.9,-7.074
99.878644,-4.34,13.839,-6.729
99.889317,-6.65,13.279,-5.975
99.89999,-8.89,12.764,-5.071
99.910663,-10.43,12.237,-4.097
99.921336,-11.9,11.39,-3.323
99.932009,-13.09,10.672,-2.881
99.942682,-14.63,10.267,-2.597
99.953355,-16.59,10.291,-2.734
99.964028,-17.71,10.336,-2.584
99.974701,-18.06,10.725,-2.374
99.98536,-19.11,11.382,-2.471
99.996019,-20.37,12.692,-3.449
100.006678,-20.65,14.123,-3.907
100.017337,-20.79,15.348,-4.402
100.027996,-19.25,16.609,-3.895
100.038655,-15.33,17.951,-3.445
100.049314,-14.28,18.948,-4.264
100.059973,-18.27,19.504,-4.593
100.070632,-22.68,19.398,-4.398
100.081291,-23.03,19.249,-3.145
100.09195,-20.3,19.541,-2.383
100.102609,-19.74,19.281,-2.926
100.113268,-21.14,18.754,-3.161
100.123926,-23.17,17.902,-3.169
100.134584,-24.85,17.464,-3.105
100.145242,-23.59,18.056,-3.64
100.1559,-20.65,18.425,-4.925
100.166558,-16.8,19.321,-5.976
100.177216,-12.95,20.456,-6.771
100.187874,-10.15,21.109,-7.651
100.198532,-7.63,21.344,-8.178
100.20919,-4.48,21.58,-7.497
100.219848,-1.4,21.345,-6.969
100.230506,0.7,21,-5.822
100.241164,1.68,20.209,-4.966
100.251807,2.59,19.131,-4.09
100.26245,2.87,18.239,-3.466
100.273093,3.01,17.318,-3.486
100.283736,2.59,16.637,-4.459
100.294379,2.31,16.049,-5.558
100.305022,1.47,15.923,-6.859
100.315665,-0.42,15.708,-8.461
100.326308,-2.59,15.724,-10.164
100.336951,-4.83,16.214,-12.139
100.347594,-6.02,16.96,-13.145
100.358237,-7,17.637,-12.954
100.36888,-7.77,17.435,-12.208
100.379523,-8.33,17.297,-11.024
100.390158,-7.91,17.314,-9.102
100.400793,-7.35,17.383,-7.881
100.411428,-6.51,17.229,-6.202
100.422063,-5.25,16.661,-4.597
100.432698,-4.34,16.232,-2.966
100.443333,-3.57,14.946,-2.127
100.453968,-2.94,13.694,-1.068
100.464603,-1.89,12.514,-0.423
100.475238,-1.12,10.989,0.161
100.485873,-1.4,8.958,0.798
100.496508,-2.73,7.056,1.102
100.507143,-4.06,5.053,2.384
100.517785,-5.53,3.017,3.446
100.528427,-7.77,1.095,4.671
100.539069,-10.85,-0.064,4.396
100.549711,-13.72,-1.184,3.487
100.560353,-16.24,-1.76,2.32
100.570995,-18.9,-1.589,1.355
100.581637,-20.3,-1.415,-0.036
100.592279,-20.3,-0.969,-0.953
100.602921,-18.97,-0.519,-1.087
100.613563,-17.43,0.17,-2.173
100.624205,-15.54,1.172,-2.21
100.634847,-14.35,2.72,-2.932
100.645514,-13.51,4.407,-3.63
100.656181,-12.39,4.764,-2.43
100.666848,-9.87,4.233,0.178
100.677515,-9.52,4.015,1.419
100.688182,-11.55,4.461,0.502
100.698849,-13.09,5.665,-0.281
100.709516,-14.07,7.327,-2.049
100.720183,-13.65,8.9,-4.117
100.73085,-11.69,9.715,-5.111
100.741517,-9.45,10.064,-5.476
100.752184,-7.77,10.81,-5.273
100.762851,-5.46,11.941,-5.642
100.773552,-3.5,13.158,-6.494
100.784253,-2.31,14.496,-6.827
100.794954,-1.33,15.663,-7.403
100.805655,-0.42,15.996,-7.273
100.816356,0.49,16.406,-6.774
100.827057,0.49,15.879,-5.801
100.837758,1.68,15.96,-4.649
100.848459,2.24,15.635,-4.422
100.85916,2.59,15.948,-4.58
100.869861,2.31,15.692,-4.341
100.880562,2.31,15.043,-3.887
100.891263,1.61,14.301,-3.307
100.901955,1.05,13.45,-3.315
100.912647,0.49,12.611,-3.392
100.923339,0.14,11.605,-2.929
100.934031,-0.35,10.526,-3.262
100.944723,-0.98,10.149,-3.541
100.955415,-1.68,9.796,-3.959
100.966107,-2.17,9.427,-3.882
100.976799,-2.66,9.358,-3.894
100.987491,-2.59,9.853,-3.878
100.998183,-1.47,10.34,-4.219
101.008875,-0.7,11.751,-4.965
101.019567,-0.77,13.279,-5.975
101.030259,-0.91,14.131,-5.967
101.04099,-0.63,14.889,-5.833
101.051721,-0.42,15.149,-5.29
101.062452,-0.56,15.092,-4.163
101.073183,-0.91,15.562,-4.008
101.083914,-1.19,16.017,-4.568
101.094645,-2.59,15.733,-4.974
101.105376,-4.48,15.238,-4.99
101.116107,-7.21,15.145,-4.864
101.126838,-10.15,14.909,-5.545
101.137569,-12.18,14.723,-6.502
101.1483,-12.46,14.844,-7.192
101.159031,-12.88,14.82,-7.054
101.169762,-12.32,14.021,-6.555
101.180543,-11.9,13,-5.598
101.191324,-11.55,12.079,-4.409
101.202105,-12.6,10.632,-3.456
101.212886,-14.42,10.036,-2.495
101.223667,-16.45,9.833,-1.749
101.234448,-18.41,9.375,-0.764
101.245229,-18.06,8.962,0.372
101.25601,-15.54,9.047,1.098
101.266791,-12.39,9.842,1.025
101.277572,-12.18,10.539,-0.914
101.288353,-13.09,11.127,-2.232
101.299134,-13.44,11.921,-3.513
101.309896,-12.81,13.133,-5.148
101.320658,-13.09,13.644,-6.835
101.33142,-14.63,12.902,-7.463
101.342182,-18.13,11.288,-7.179
101.352944,-22.4,9.338,-6.599
101.363706,-24.99,7.152,-6.7
101.374468,-25.55,5.81,-7.15
101.38523,-23.31,4.893,-7.596
101.395992,-19.32,4.468,-7.6
101.406754,-14,4.338,-7.267
101.417516,-9.73,4.395,-5.978
101.428278,-5.11,4.796,-4.627
101.439034,-0.49,5.283,-2.551
101.44979,2.73,5.482,-0.455
101.460546,5.39,5.422,1.098
101.471302,6.3,5.203,2.339
101.482058,7.07,5.418,2.732
101.492814,7.77,4.935,2.647
101.50357,7.42,5.235,1.35
101.514326,6.65,6.095,-0.702
101.525082,5.67,6.447,-2.702
101.535838,3.57,6.143,-3.395
101.546594,1.05,5.551,-4.068
101.55735,-0.56,5.66,-4.688
101.568077,-1.61,6.426,-5.406
101.578804,-2.45,7.318,-6.031
101.589531,-2.87,7.951,-5.99
101.600258,-2.52,8.969,-5.313
101.610985,-2.17,9.606,-4.49
101.621712,-1.54,10.226,-3.172
101.632439,-0.91,10.19,-1.757
101.643166,0.28,9.878,-0.391
101.653893,0.98,8.897,1.142
101.66462,0.77,7.599,2.051
101.675347,-0.14,6.407,2.765
101.686074,-1.4,5.061,2.74
101.696801,-3.36,3.731,2.222
101.707509,-4.97,2.871,1.857
101.718217,-6.72,2.218,1.528
101.728925,-8.54,1.72,1.938
101.739633,-10.5,0.775,2.056
101.750341,-11.27,0.077,2.786
101.761049,-12.32,-1.042,3.086
101.771757,-13.58,-2.242,3.443
101.782465,-14.35,-3.353,4.1
101.793173,-14.56,-5.121,4.855
101.803881,-15.47,-6.876,5.54
101.814589,-16.52,-8.713,6.282
101.825297,-17.64,-10.514,6.818
101.835978,-19.11,-12.099,6.538
101.846659,-20.3,-12.853,5.979
101.85734,-21.28,-13.859,5.233
101.868021,-21.07,-14.03,4.99
101.878702,-18.34,-14.346,5.574
101.889383,-13.23,-14.094,5.76
101.900064,-13.44,-12.761,2.228
101.910745,-17.08,-10.414,-2.618
101.921426,-18.62,-7.336,-5.558
101.932107,-16.45,-5.759,-5.636
101.942788,-13.16,-5.686,-3.632
101.953469,-12.25,-6.598,-2.087
101.96415,-14.63,-7.53,-0.83
101.974841,-16.24,-7.173,0.37
101.985532,-18.76,-7.489,2.162
101.996223,-21.7,-8.373,3.144
102.006914,-23.87,-9.119,4.15
102.017605,-24.15,-10.125,4.612
102.028296,-22.19,-10.559,4.251
102.038987,-17.57,-10.538,4.539
102.049678,-12.32,-11.005,5.168
102.060369,-7.42,-11.459,5.727
102.07106,-3.29,-11.982,6.275
102.081751,0,-12.217,6.802
102.092442,1.12,-12.351,6.352
102.103154,0.7,-11.682,6.185
102.113866,0.14,-11.244,6.121
102.124578,-1.33,-10.98,6.238
102.13529,-3.29,-11.43,6.372
102.146002,-4.34,-11.645,7.187
102.156714,-4.62,-12.788,7.625
102.167426,-5.25,-13.445,7.723
102.178138,-5.67,-14.285,7.646
102.18885,-5.18,-15.043,7.512
102.199562,-5.39,-15.611,6.701
102.210274,-6.23,-15.599,5.424
102.220986,-7.84,-15.481,3.952
102.231682,-8.47,-15.117,3.092
102.242378,-8.54,-14.946,2.127
102.253074,-7.63,-15.332,1.49
102.26377,-5.74,-14.995,1.194
102.274466,-3.99,-14.533,0.991
102.285162,-2.17,-13.471,0.61
102.295858,-1.96,-12.339,0.241
102.306554,-2.24,-11.476,0.18
102.31725,-3.29,-10.219,-0.096
102.327946,-4.83,-9.229,-0.064
102.338642,-6.72,-8.09,-0.076
102.349338,-7.77,-6.958,-0.445
102.360034,-9.59,-6.135,-1.082
102.37071,-11.69,-5.414,-1.95
102.381386,-12.95,-4.943,-3.004
102.392062,-13.79,-4.68,-2.887
102.402738,-13.65,-3.703,-2.785
102.413414,-14.14,-2.904,-3.284
102.42409,-14.42,-1.266,-3.706
102.434766,-14.14,0.17,-4.59
102.445442,-14,1.646,-4.899
102.456118,-13.23,3.799,-6.225
102.466794,-12.18,5.53,-7.981
102.47747,-11.2,7.184,-8.898
102.488146,-10.08,8.336,-8.979
102.498822,-9.38,9.439,-8.784
102.509506,-8.96,9.561,-8.265
102.52019,-8.33,9.378,-7.231
102.530874,-8.68,8.896,-6.108
102.541558,-9.52,7.473,-4.084
102.552242,-9.73,6.301,-3.083
102.562926,-10.08,5.368,-3.034
102.57361,-9.45,3.974,-2.782
102.584294,-8.47,2.806,-2.206
102.594978,-6.51,1.768,-0.754
102.605662,-6.23,1.147,-0.864
102.616346,-6.16,1.366,-2.105
102.62703,-6.44,2.497,-3.682
102.637723,-4.34,3.973,-7.616
102.648416,-1.61,5.4,-10.065
102.659109,0.84,6.239,-9.988
102.669802,2.1,6.503,-8.662
102.680495,3.08,6.588,-7.937
102.691188,3.92,6.71,-7.418
102.701881,4.97,7.152,-6.7
102.712574,4.69,7.586,-6.339
102.723267,4.48,8.028,-5.621
102.73396,3.64,8.985,-5.808
102.744653,1.75,9.484,-6.218
102.755346,-0.07,10.319,-6.923
102.766063,-1.54,11.28,-7.536
102.77678,-2.45,12.277,-8.355
102.787497,-2.38,13.303,-8.529
102.798214,-2.94,14.191,-8.728
102.808931,-3.29,15.022,-9.008
102.819648,-3.5,15.27,-8.396
102.830365,-3.36,15.947,-6.997
102.841082,-2.45,15.83,-5.525
102.851799,-1.33,15.952,-3.798
102.862516,0.21,15.632,-2.788
102.873233,1.12,15.072,-2.034
102.88395,2.31,14.61,-1.831
102.894671,3.01,14.245,-2.18
102.905392,3.01,13.645,-2.001
102.916113,2.17,12.688,-1.814
102.926834,0.84,12.169,-1.693
102.937555,-2.03,10.652,-1.96
102.948276,-4.34,9.63,-2.211
102.958997,-5.88,8.965,-2.471
102.969718,-7.07,7.769,-2.54
102.980439,-7.77,6.411,-2.495
102.99116,-8.19,5.247,-2.345
103.001881,-8.26,4.107,-2.332
103.012602,-9.73,3.313,-1.051
103.023323,-12.6,2.433,0.713
103.034044,-15.47,2.044,1.711
103.044754,-18.27,2.721,1.901
103.055464,-20.09,3.706,1.151
103.066174,-20.79,3.856,-0.102
103.076884,-22.89,3.512,-0.163
103.087594,-24.99,2.457,0.575
103.098304,-25.41,0.227,1.533
103.109014,-23.1,-1.585,2.137
103.119724,-19.46,-3.454,2.661
103.130434,-15.82,-4.375,2.64
103.141144,-13.02,-3.649,0.138
103.151854,-11.69,-1.874,-3.884
103.162568,-10.15,0.327,-7.903
103.173282,-9.17,2.553,-10.852
103.183996,-8.82,3.741,-12.348
103.19471,-8.33,3.672,-12.36
103.205424,-8.47,2.91,-10.86
103.216138,-10.22,2.545,-8.792
103.226852,-11.76,1.73,-7.798
103.237566,-12.74,2.014,-7.393
103.24828,-12.95,2.793,-6.971
103.258994,-12.95,3.774,-7.295
103.269708,-10.85,5.546,-7.267
103.280422,-8.54,6.71,-6.209
103.291143,-5.95,8.344,-4.997
103.301864,-4.27,9.772,-3.821
103.312585,-1.61,10.924,-2.694
103.323306,1.68,12.359,-1.161
103.334027,3.29,13.925,0.039
103.344748,5.11,15.701,0.849
103.355469,4.83,17.12,0.46
103.36619,3.22,18.268,-0.404
103.376911,0.7,19.233,-1.442
103.387632,-1.96,19.8,-3.048
103.398353,-4.41,20.165,-5.116
103.409074,-6.02,20.347,-7.359
103.419772,-6.79,20.164,-8.741
103.43047,-7.14,19.686,-9.252
103.441168,-6.44,19.369,-9.877
103.451866,-6.23,19.633,-10.967
103.462564,-6.51,20.2,-11.365
103.473262,-5.95,21.311,-12.022
103.48396,-3.08,23.181,-12.545
103.494658,-0.77,25.216,-13.608
103.505356,-0.35,26.514,-13.308
103.516054,0,28.055,-11.97
103.526752,0.63,29.511,-11.358
103.53745,1.26,31.441,-11.018
103.548148,1.61,32.771,-10.499
103.558829,1.33,34.012,-10.28
103.56951,-1.12,34.401,-10.069
103.580191,-4.34,33.992,-9.36
103.590872,-6.72,33.655,-9.064
103.601553,-8.12,33.671,-9.558
103.612234,-9.52,33.756,-10.041
103.622915,-10.36,33.651,-11.055
103.633596,-10.64,34.06,-11.764
103.644277,-10.99,34.295,-12.291
103.654958,-10.85,34.595,-12.381
103.665639,-11.2,35.277,-12.616
103.67632,-11.9,36.465,-12.904
103.686975,-13.3,37.629,-13.054
103.69763,-16.1,39.08,-13.225
103.708285,-17.78,41.379,-12.961
103.71894,-17.36,43.606,-12.285
103.729595,-16.31,45.52,-11.45
103.74025,-14.91,47.296,-10.639
103.750905,-17.01,48.042,-10.436
103.76156,-21.98,47.495,-9.751
103.772215,-27.65,45.995,-8.096
103.78287,-31.5,44.02,-7.378
103.793525,-30.45,42.195,-6.705
103.80418,-28.84,40.76,-7.029
103.814835,-27.51,39.625,-6.234
103.82549,-26.81,38.915,-5.435
103.836126,-26.6,38.599,-6.059
103.846762,-27.37,39.109,-7.746
103.857398,-27.93,40.228,-9.255
103.868034,-28.42,42.114,-10.273
103.87867,-30.31,45.783,-11.332
103.889306,-33.18,51.797,-13.186
103.899942,-38.15,59.663,-15.069
103.910578,-42.91,69.221,-15.658
103.921214,-48.93,80.542,-16.576
103.93185,-56.28,93.295,-17.952
103.942486,-64.19,106.867,-19.54
103.953126,-71.26,118.565,-20.178
103.963766,-76.09,126.679,-20.24
103.974406,-77.42,132.51,-19.851
103.985046,-77.28,137.247,-19.301
103.995686,-76.79,142.327,-19.897
104.006326,-76.44,146.699,-20.904
104.016966,-75.39,149.359,-21.074
104.027606,-72.17,149.087,-20.34
104.038246,-66.85,147.652,-19.456
104.048886,-59.5,146.099,-19.517
104.059526,-51.8,144.444,-19.808
104.070166,-45.36,142.534,-19.861
104.080822,-39.62,138.516,-18.437
104.091478,-35.42,132.203,-15.285
104.102134,-33.11,123.964,-10.483
104.11279,-32.55,115.733,-5.324
104.123446,-33.04,108.783,-1.787
104.134102,-32.34,102.53,-0.189
104.144758,-30.59,95.885,1.625
104.155414,-29.19,89.125,3.276
104.16607,-28.21,83.018,4.047
104.176726,-27.79,77.719,4.677
104.187382,-28,71.875,5.566
104.198038,-28,66.113,6.398
104.208724,-27.86,60.283,7.218
104.21941,-27.44,54.922,8.192
104.230096,-27.02,49.213,9.53
104.240782,-26.46,44.164,10.346
104.251468,-26.32,38.832,11.965
104.262154,-26.46,33.577,12.744
104.27284,-25.83,27.693,13.057
104.283526,-24.08,22.085,13.419
104.294212,-21.7,17.195,13.339
104.304898,-20.65,13.464,12.325
104.315584,-19.6,10.792,11.357
104.32627,-18.48,8.091,9.743
104.336944,-16.59,5.889,7.72
104.347618,-15.47,3.776,5.997
104.358292,-14.07,2.044,4.128
104.368966,-14.07,0.767,2.907
104.37964,-13.79,0.244,2.246
104.390314,-12.67,-0.835,1.914
104.400988,-10.92,-2.595,4.234
104.411662,-9.73,-5.919,6.562
104.422336,-10.5,-10.319,8.132
104.43301,-11.62,-13.311,8.173
104.443684,-12.18,-14.548,6.32
104.454358,-15.05,-15.323,3.056
104.465032,-18.97,-17.522,0.607
104.47571,-21.77,-19.148,-0.249
104.486388,-22.26,-21.123,-0.739
104.497066,-22.54,-23.146,-2.162
104.507744,-22.47,-24.947,-4.043
104.518422,-21.28,-27.299,-6.022
104.5291,-19.39,-30.105,-7.441
104.539778,-17.92,-33.682,-7.716
104.550456,-17.08,-38.471,-7.565
104.561134,-16.45,-43.994,-7.686
104.571812,-15.47,-50.786,-7.462
104.58249,-14.63,-58.186,-7.417
104.593168,-13.3,-65.878,-6.925
104.603836,-12.18,-72.277,-6.916
104.614504,-11.34,-75.72,-7.949
104.625172,-9.59,-76.661,-8.257
104.63584,-8.54,-75.294,-7.945
104.646508,-8.82,-73.011,-7.187
104.657176,-9.17,-70.083,-6.458
104.667844,-9.8,-66.519,-7.322
104.678512,-10.08,-61.897,-8.142
104.68918,-9.8,-57.087,-8.005
104.699848,-8.89,-52.181,-8.419
104.710516,-7.98,-47.712,-8.768
104.721184,-8.54,-44.209,-9.288
104.731852,-10.08,-40.847,-9.406
104.742561,-11.97,-37.401,-10.007
104.75327,-13.65,-33.694,-10.064
104.763979,-15.47,-30.361,-9.618
104.774688,-16.59,-26.74,-9.193
104.785397,-17.36,-23.115,-7.985
104.796106,-17.43,-19.258,-6.879
104.806815,-16.94,-15.6,-5.452
104.817524,-17.22,-12.328,-4.662
104.828233,-17.22,-9.72,-4.131
104.838942,-17.85,-6.663,-4.942
104.849651,-18.69,-2.689,-6.516
104.86036,-20.16,1.061,-7.632
104.871069,-22.19,3.628,-7.677
104.881778,-23.1,6.223,-8.285
104.892487,-23.73,8.251,-8.496
104.903196,-23.73,9.54,-8.553
104.913905,-23.24,10.732,-8.059
104.924614,-22.12,10.907,-7.033
104.935323,-19.53,10.169,-5.67
104.946032,-17.57,8.754,-4.498
104.956741,-15.82,6.723,-2.653
104.96745,-14.77,4.323,-0.731
104.978159,-14.91,2.19,0.884
104.988868,-15.47,0.471,1.362
104.999597,-16.59,-0.665,-0.259
105.010326,-16.87,-1.051,-2.104
105.021055,-17.99,-1.051,-3.313
105.031784,-19.67,-0.637,-4.448
105.042513,-20.65,0.036,-5.04
105.053242,-21.91,1.289,-4.89
105.063971,-23.87,2.911,-3.609
105.0747,-25.76,5.628,-2.491
105.085429,-26.46,8.231,-1.534
105.096158,-26.32,10.904,-0.565
105.106887,-24.78,13.029,-0.119
105.117616,-23.03,14.797,0.335
105.128377,-21.91,15.17,1.04
105.139138,-20.72,14.189,2.573
105.149899,-20.44,12.993,3.713
105.16066,-21,11.63,4.183
105.171421,-21.56,10.381,4.816
105.182182,-22.54,9.915,4.236
105.192943,-22.33,8.662,4.086
105.203704,-20.65,7.51,4.167
105.214465,-17.15,6.335,4.387
105.225226,-12.6,5.426,5.506
105.235987,-7.84,4.855,6.329
105.246748,-3.99,4.563,6.775
105.257493,-2.03,4.924,6.341
105.268238,-2.66,5.601,5.323
105.278983,-4.13,6.217,3.442
105.289728,-6.72,6.241,2.096
105.300473,-7.63,5.892,1.252
105.311218,-7.63,5.916,1.114
105.321963,-7.07,5.916,1.114
105.332708,-6.51,6.054,1.139
105.343453,-6.16,6.456,1.28
105.354198,-5.81,6.788,2.619
105.364943,-5.39,6.671,4.091
105.375688,-4.2,6.197,5.571
105.386433,-3.29,5.658,6.613
105.397158,-1.82,5.719,7.477
105.407883,-0.28,5.443,7.428
105.418608,-0.49,4.883,6.974
105.429333,-0.98,4.254,5.299
105.440058,-1.47,3.707,3.568
105.450783,-1.89,3.585,1.84
105.461508,-3.71,3.134,-0.442
105.472233,-4.48,3.819,-3.52
105.482958,-4.83,4.675,-6.355
105.493683,-5.04,5.745,-8.796
105.504408,-5.67,6.657,-10.341
105.515133,-6.09,8.035,-11.306
105.525841,-5.25,9.588,-12.454
105.536549,-5.25,10.987,-13.132
105.547257,-4.76,12.114,-13.075
105.557965,-4.2,12.711,-12.828
105.568673,-3.57,13.595,-12.601
105.579381,-2.66,14.892,-12.301
105.590089,-1.96,16.036,-12.739
105.600797,-1.61,18.541,-14.856
105.611505,-1.26,21.716,-19.556
105.622213,-0.91,25.519,-24.999
105.632921,-0.28,28.182,-30.429
105.643629,1.19,30.217,-35.116
105.654337,3.08,32.787,-40.421
105.665045,5.95,36.286,-45.348
105.675753,9.8,39.541,-50.105
105.686461,13.65,42.335,-54.659
105.697206,16.94,44.435,-57.701
105.707951,20.02,45.428,-59.302
105.718696,22.05,46.166,-59.457
105.729441,23.03,46.349,-58.074
105.740186,23.59,47.038,-55.536
105.750931,24.71,48.823,-53.16
105.761676,25.48,51.167,-51.538
105.772421,27.86,54.095,-50.808
105.78316,31.22,55.709,-48.676
105.793899,33.81,55.948,-46.004
105.804638,36.82,54.728,-43.518
105.815377,36.68,52.036,-41.149
105.826116,35.07,48.869,-38.509
105.836855,31.57,44.734,-35.613
105.847594,26.74,38.117,-31.946
105.858333,22.26,29.448,-25.514
105.869072,18.55,20.974,-20.185
105.879811,15.12,14.336,-16.806
105.89055,12.74,10.196,-14.693
105.901289,10.71,7.358,-11.497
105.912028,8.4,3.061,-6.071
105.922742,5.25,-1.16,-0.276
105.933456,2.17,-6.26,4.867
105.94417,0.35,-10.521,8.878
105.954884,-0.7,-14,11.676
105.965598,-1.26,-16.757,13.607
105.976312,0.14,-19.174,16.024
105.987026,1.89,-21.465,18.534
105.99774,2.52,-23.84,21.527
106.008454,2.87,-25.981,23.993
106.019168,1.75,-27.81,25.092
106.029882,-1.19,-28.933,25.818
106.040596,-5.39,-29.707,24.971
106.05131,-9.24,-30.129,23.333
106.062023,-12.6,-29.724,21.84
106.072736,-15.12,-28.208,19.691
106.083449,-15.47,-25.017,16.913
106.094162,-16.24,-22.799,13.608
106.104875,-17.57,-21.486,10.996
106.115588,-22.19,-22.269,9.792
106.126301,-27.44,-25.261,11.041
106.137014,-32.76,-29.166,12.627
106.147727,-36.19,-32.994,13.374
106.15844,-38.64,-36.586,13.593
106.169153,-41.79,-41.096,12.159
106.179866,-45.57,-48.33,10.456
106.190565,-49.56,-58.524,10.223
106.201264,-53.97,-69.785,12.004
106.211963,-57.05,-79.658,15.594
106.222662,-59.57,-86.085,18.584
106.233361,-62.23,-89.633,20.162
106.24406,-65.8,-90.809,19.172
106.254759,-67.69,-91.259,18.098
106.265458,-67.9,-91,18.641
106.276157,-64.05,-89.118,19.257
106.286856,-58.03,-85.031,19.054
106.297555,-52.78,-79.419,18.267
106.308254,-49.21,-73.887,18.744
106.318952,-47.18,-68.389,19.003
106.32965,-47.46,-63.636,20.268
106.340348,-47.67,-59.828,21.65
106.351046,-45.57,-56.22,20.936
106.361744,-37.59,-51.025,18.084
106.372442,-31.85,-45.438,15.018
106.38314,-28.35,-42.166,13.391
106.393838,-26.6,-41.646,16.895
106.404536,-27.23,-43.174,23.947
106.415234,-29.19,-44.597,28.387
106.425932,-29.75,-44.528,28.399
106.43663,-28.14,-42.018,25.856
106.447328,-24.22,-38.207,23.188
106.458027,-19.11,-33.755,20.916
106.468726,-14.91,-29.595,17.883
106.479425,-13.79,-26.785,15.25
106.490124,-13.3,-24.284,12.351
106.500823,-12.6,-21.908,9.358
106.511522,-12.81,-20.217,7.026
106.522221,-11.9,-18.032,4.71
106.53292,-9.03,-15.088,2.528
106.543619,-5.32,-13.142,-0.043
106.554318,-3.71,-12.551,-2.995
106.565017,-4.97,-14.201,-4.921
106.575716,-7.28,-17.307,-5.042
106.586428,-10.36,-21.589,-3.736
106.59714,-12.74,-25.624,-1.817
106.607852,-14.28,-27.72,-1.618
106.618564,-14.49,-28.041,-3.025
106.629276,-13.79,-26.435,-4.874
106.639988,-13.16,-24.148,-6.959
106.6507,-12.39,-21.906,-6.777
106.661412,-13.44,-22.141,-3.833
106.672124,-14,-23.126,0.543
106.682836,-11.83,-24.374,4.8
106.693548,-9.8,-25.428,6.747
106.70426,-8.89,-26.531,6.553
106.714976,-8.26,-27.265,5.073
106.725692,-8.4,-27.221,2.806
106.736408,-9.73,-26.811,0.888
106.747124,-10.99,-26.637,0.705
106.75784,-11.48,-26.264,1.411
106.768556,-11.62,-25.745,1.289
106.779272,-10.78,-24.946,1.999
106.789988,-7.14,-23.218,4.293
106.800704,-4.69,-21.876,4.743
106.81142,-5.74,-20.274,5.737
106.822136,-5.46,-18.717,8.997
106.832852,-0.14,-17.654,9.824
106.843568,1.68,-17.261,7.192
106.854258,1.89,-14.407,4.71
106.864948,0.56,-12.165,1.267
106.875638,-1.4,-11.127,-1.393
106.886328,-1.96,-11.865,-2.448
106.897018,-3.08,-13.665,-0.704
106.907708,-3.78,-15.482,0.327
106.918398,-3.85,-18.296,-0.241
106.929088,-1.54,-20.875,-1.335
106.939778,-0.49,-23.426,-2.993
106.950468,0.91,-24.294,-6.132
106.961158,1.68,-23.739,-10.086
106.971848,2.03,-22.073,-12.279
106.982538,3.57,-19.798,-13.087
106.993212,3.92,-17.888,-13.034
107.003886,3.99,-15.99,-11.705
107.01456,4.41,-14.218,-9.26
107.025234,4.83,-13.168,-7.155
107.035908,4.06,-13.333,-4.199
107.046582,2.66,-13.357,-1.644
107.057256,-0.56,-14.18,0.201
107.06793,-3.57,-15.255,1.859
107.078604,-7.56,-15.583,2.512
107.089278,-10.43,-16.102,1.426
107.099952,-12.74,-16.423,0.019
107.110626,-15.12,-16.84,-0.837
107.121286,-16.31,-17.254,-2.118
107.131946,-17.22,-17.246,-2.97
107.142606,-16.03,-16.565,-3.205
107.153266,-14.56,-16.508,-4.332
107.163926,-11.83,-15.207,-4.458
107.174586,-12.95,-13.905,-5.793
107.185246,-13.44,-12.551,-6.62
107.195906,-13.93,-10.67,-6.004
107.206566,-15.19,-8.983,-5.493
107.217226,-17.5,-8.082,-4.553
107.227886,-18.69,-7.162,-3.324
107.238546,-18.9,-6.136,-3.499
107.249206,-19.39,-4.863,-4.269
107.25988,-19.67,-3.674,-4.557
107.270554,-20.65,-4.096,-4.987
107.281228,-22.96,-5.191,-3.616
107.291902,-21.49,-5.791,-2.229
107.302576,-19.67,-6.646,-0.603
107.31325,-17.64,-7.36,1.83
107.323924,-16.94,-7.773,4.174
107.334598,-13.37,-8.397,5.698
107.345272,-6.58,-8.385,4.421
107.355946,-1.47,-7.745,2.402
107.36662,2.73,-7.68,1.631
107.377294,5.53,-8.609,0.046
107.388055,6.09,-9.282,-0.57
107.398816,3.78,-9.967,0.091
107.409577,0.49,-10.454,0.431
107.420338,-2.03,-9.736,-1.219
107.431099,-3.43,-7.587,-3.328
107.44186,-3.43,-4.38,-5.393
107.452621,-1.96,-1.173,-7.457
107.463382,0.42,0.457,-8.236
107.474143,1.61,0.842,-7.599
107.484904,1.33,0.769,-7.186
107.495665,0.21,0.21,-5.223
107.506483,-1.19,-0.3,-2.328
107.517301,-2.59,-0.106,-1.014
107.528119,-4.55,0.077,-0.839
107.538937,-5.39,0.576,-1.249
107.549755,-5.81,0.875,-3.755
107.560573,-6.02,1.345,-6.018
107.571391,-6.51,1.455,-7.847
107.582209,-5.53,1.329,-10.357
107.593027,-4.69,1.697,-12.851
107.603845,-3.85,1.965,-14.367
107.614663,-2.1,2.48,-15.271
107.625481,-1.4,3.291,-14.631
107.636299,-2.03,3.116,-15.657
107.647121,-3.36,2.982,-16.107
107.657943,-5.32,2.394,-15.997
107.668765,-7.14,1.413,-14.464
107.679587,-7.77,-0.058,-12.165
107.690409,-7.49,-0.01,-10.024
107.701231,-7.56,1.029,-7.851
107.712053,-7.21,2.878,-7.453
107.722875,-7.14,4.228,-9.063
107.733697,-8.4,5.027,-10.771
107.744519,-9.1,4.759,-10.463
107.755341,-8.4,4.256,-9.627
107.766163,-6.86,3.401,-8.001
107.776985,-4.06,2.319,-6.699
107.787827,-1.19,0.835,-5.539
107.798669,0.21,-0.382,-4.688
107.809511,0.63,-1.988,-4.047
107.820353,-0.28,-2.884,-2.996
107.831195,-1.54,-2.798,-2.27
107.842037,-2.38,-1.748,-2.583
107.852879,-2.52,-0.381,-2.271
107.863721,-2.03,0.194,-1.103
107.874563,-0.84,0.527,0.235
107.885405,-1.33,0.243,-0.17
107.896247,-3.5,-2.064,0.418
107.907089,-4.41,-4.221,2.17
107.917919,-10.08,-5.802,1.465
107.928749,-10.99,-7.088,2.304
107.939579,-10.78,-6.796,0.65
107.950409,-11.55,-6.152,-3.004
107.961239,-10.57,-6.339,-5.169
107.972069,-9.45,-8.346,-5.879
107.982899,-8.26,-11.339,-5.838
107.993729,-6.65,-13.922,-5.298
108.004559,-4.83,-15.008,-3.57
108.015389,-3.43,-14.971,-2.569
108.026219,-2.45,-14.189,-2.573
108.037049,-2.17,-13.09,-3.161
108.047879,-3.08,-13.358,-4.061
108.058712,-4.62,-15.029,-5.067
108.069545,-5.88,-15.751,-6.616
108.080378,-5.25,-15.901,-8.988
108.091211,-3.99,-14.924,-11.303
108.102044,-3.08,-13.294,-12.082
108.112877,-2.94,-12.215,-11.75
108.12371,-4.13,-12.02,-9.227
108.134543,-6.44,-11.712,-6.543
108.145376,-8.96,-10.702,-3.806
108.156209,-11.97,-9.684,-1.921
108.167042,-15.61,-9.055,-0.246
108.177875,-18.06,-8.268,0.532
108.188708,-20.93,-8.43,-0.562
108.199532,-22.26,-8.889,-1.994
108.210356,-22.82,-9.805,-2.44
108.22118,-22.4,-10.312,-2.387
108.232004,-21.14,-10.247,-1.949
108.242828,-19.25,-9.659,-2.059
108.253652,-16.73,-9.651,-2.91
108.264476,-14.63,-10.661,-3.23
108.2753,-12.25,-11.959,-3.53
108.286124,-10.64,-12.697,-4.584
108.296948,-10.01,-11.829,-6.28
108.307772,-10.08,-10.256,-7.139
108.318589,-11.27,-9.417,-7.062
108.329406,-14.14,-9.331,-6.337
108.340223,-17.29,-9.745,-6.41
108.35104,-19.11,-9.773,-5.846
108.361857,-20.58,-9.923,-4.593
108.372674,-17.71,-9.493,-2.598
108.383491,-16.52,-7.895,-2.387
108.394308,-15.75,-7.036,-3.231
108.405125,-14.35,-6.144,-3.855
108.415942,-14.7,-6.785,-4.253
108.426759,-15.54,-10.604,-1.941
108.437576,-14.07,-15.02,1.332
108.448393,-10.99,-18.061,1.649
108.459217,-6.58,-18.702,0.043
108.470041,-2.17,-19.517,-0.172
108.480865,2.1,-20.149,-0.212
108.491689,5.04,-20.287,-1.445
108.502513,6.51,-18.962,-2.917
108.513337,7.21,-16.865,-4.324
108.524161,6.37,-15.3,-5.541
108.534985,5.88,-13.747,-5.48
108.545809,4.69,-12.701,-5.367
108.556633,3.29,-11.667,-5.185
108.567457,0.63,-10.081,-4.905
108.578281,-1.54,-8.642,-5.007
108.589097,-4.62,-7.093,-5.729
108.599913,-7.56,-6.246,-6.503
108.610729,-9.59,-6.096,-6.548
108.621545,-12.32,-6.286,-5.871
108.632361,-13.79,-6.189,-5.214
108.643177,-14.84,-4.769,-5.603
108.653993,-15.96,-2.584,-6.711
108.664809,-17.22,-0.601,-7.072
108.675625,-17.99,0.149,-7.295
108.686441,-17.64,-0.828,-7.396
108.697257,-17.01,-3.261,-5.693
108.708073,-15.68,-6.063,-3.912
108.718838,-12.88,-7.79,-2.582
108.729603,-10.22,-8.889,-1.994
108.740368,-7.91,-9.525,-1.609
108.751133,-5.32,-10.896,-1.495
108.761898,-3.78,-11.926,-2.103
108.772663,-2.94,-12.129,-3.774
108.783428,-3.15,-12.008,-5.671
108.794193,-3.78,-12.166,-7.192
108.804958,-4.9,-11.967,-7.512
108.815723,-6.79,-11.842,-7.419
108.826488,-8.05,-12.036,-6.316
108.837253,-9.03,-12.454,-4.755
108.848018,-10.22,-13.447,-1.945
108.858783,-9.94,-14.424,0.371
108.869495,-10.92,-14.74,0.955
108.880207,-10.08,-14.642,1.612
108.890919,-10.5,-13.945,0.882
108.901631,-12.67,-14.342,0.314
108.912343,-8.47,-15.088,2.528
108.923055,-8.68,-15.466,1.04
108.933767,-9.94,-15.068,0.399
108.944479,-9.8,-14.472,0.647
108.955191,-11.48,-15.385,-0.225
108.965903,-11.34,-15.88,-1.449
108.976615,-11.41,-16.058,-2.05
108.987327,-8.89,-15.588,-1.896
108.998006,-6.65,-14.059,-2.905
109.008685,-5.25,-12.38,-3.96
109.019364,-3.92,-9.725,-6.122
109.030043,-3.15,-6.404,-9.232
109.040722,-2.38,-2.913,-13.308
109.051401,-2.87,-1.02,-16.386
109.06208,-3.15,-0.084,-18.069
109.072759,-2.66,-0.278,-18.174
109.083438,-1.68,-0.846,-16.569
109.094117,0.07,-2.553,-13.742
109.104796,0.56,-5.107,-10.141
109.115475,0.28,-6.886,-6.901
109.126109,-0.98,-8.93,-4.986
109.136743,-3.57,-9.266,-3.482
109.147377,-7.49,-8.013,-2.124
109.158011,-9.94,-4.814,-3.337
109.168645,-10.92,-0.848,-5.267
109.179279,-11.55,1.151,-4.915
109.189913,-10.85,1.93,-4.493
109.200547,-6.65,2.441,-3.763
109.211181,-1.82,1.962,-1.857
109.221815,1.47,1.46,0.186
109.232449,3.36,1.456,3.029
109.243083,3.43,2.47,5.34
109.253717,3.29,2.3,7.514
109.264337,2.87,2.207,8.848
109.274957,3.92,1.968,8.592
109.285577,5.74,1.603,8.244
109.296197,4.76,1.311,8.69
109.306817,2.59,2.426,10.024
109.317437,-0.28,4.855,11.163
109.328057,-5.74,7.734,9.751
109.338677,-11.83,10.516,7.683
109.349297,-15.33,12.052,7.03
109.359917,-13.93,13.403,6.628
109.370537,-14.84,13.909,2.95
109.381157,-17.15,12.984,0.939
109.391778,-15.61,12.291,2.452
109.402399,-12.6,10.122,3.064
109.41302,-12.6,5.394,4.079
109.423641,-12.39,-1.138,9.679
109.434262,-10.85,-7.094,17.656
109.444883,-10.64,-11.87,20.155
109.455504,-11.55,-13.849,18.882
109.466125,-10.36,-12.783,15.658
109.476746,-8.33,-10.436,12.02
109.487367,-6.09,-6.357,9.044
109.497988,-5.39,-2.412,6.825
109.508609,-3.08,1.006,5.58
109.519232,-0.98,4.903,3.637
109.529855,-1.54,6.282,2.671
109.540478,-2.38,4.728,2.611
109.551101,-3.36,1.87,1.893
109.561724,-2.38,-1.079,-0.332
109.572347,-0.91,-3.978,-2.834
109.58297,0.91,-7.174,-4.464
109.593593,2.66,-9.262,-6.324
109.604216,4.06,-10.682,-8.352
109.614839,4.55,-11.668,-10.018
109.625462,4.2,-13.172,-11.563
109.636085,2.52,-15.686,-12.22
109.646708,-0.14,-18.298,-13.533
109.657312,-2.52,-20.147,-15.139
109.667916,-4.48,-21.421,-16.785
109.67852,-5.74,-22.236,-16.999
109.689124,-6.3,-22.475,-16.047
109.699728,-7.07,-21.96,-13.326
109.710332,-8.12,-21.44,-9.822
109.720936,-8.4,-21.383,-7.324
109.73154,-7.28,-21.038,-6.055
109.742144,-5.53,-20.835,-5.593
109.752748,-3.78,-21.48,-5.565
109.763352,-1.68,-22.911,-5.106
109.773956,-1.12,-24.432,-4.948
109.78456,-2.24,-25.34,-5.037
109.795136,-4.83,-26.411,-5.012
109.805712,-7.28,-26.228,-4.838
109.816288,-7.84,-25.288,-4.53
109.826864,-6.93,-23.722,-4.538
109.83744,-5.74,-22.267,-3.926
109.848016,-2.8,-21.188,-2.385
109.858592,-0.56,-20.028,-0.901
109.869168,-1.82,-19.436,-0.228
109.879744,-0.98,-17.882,1.041
109.89032,-3.36,-16.82,-0.549
109.900896,-7.35,-16.844,-0.411
109.911472,-6.79,-18.15,2.557
109.922039,-8.4,-18.653,0.976
109.932606,-12.6,-17.587,-2.248
109.943173,-13.86,-15.357,-1.997
109.95374,-14.98,-13.633,-1.693
109.964307,-16.66,-13.852,-2.869
109.974874,-17.15,-14.757,-3.384
109.985441,-16.24,-15.778,-3.635
109.996008,-14.77,-16.5,-5.184
110.006575,-12.74,-16.777,-7.649
110.017142,-10.29,-16.002,-10.427
110.027709,-6.86,-14.815,-13.132
110.038276,-4.06,-13.899,-15.103
110.048843,-2.45,-13.023,-15.233
110.059429,-1.33,-11.964,-13.98
110.070015,-1.19,-11.826,-12.747
110.080601,-1.96,-12.11,-10.736
110.091187,-1.96,-12.243,-7.561
110.101773,-2.38,-12.973,-4.633
110.112359,-2.03,-12.522,-2.35
110.122945,-1.75,-12.198,-1.369
110.133531,-0.56,-12.023,-1.551
110.144117,-0.07,-11.646,-2.48
110.154703,-0.21,-11.594,-3.182
110.165289,-0.98,-11.606,-4.321
110.175875,-2.1,-11.683,-4.69
110.186461,-3.5,-11.703,-4.978
110.197076,-4.55,-11.699,-5.404
110.207691,-4.9,-11.302,-6.044
110.218306,-5.67,-11.404,-6.276
110.228921,-6.79,-11.858,-6.924
110.239536,-8.75,-12.239,-6.778
110.250151,-10.43,-12.405,-6.239
110.260766,-12.04,-12.814,-4.321
110.271381,-12.74,-13.017,-1.158
110.281996,-12.88,-13.146,1.591
110.292611,-12.6,-13.523,3.728
110.303226,-12.74,-13.92,4.369
110.313841,-13.3,-14.573,4.041
110.324479,-15.05,-15.198,3.149
110.335117,-17.29,-14.48,1.498
110.345755,-20.3,-12.575,-1.649
110.356393,-23.17,-9.801,-4.074
110.367031,-23.24,-7.267,-4.338
110.377669,-20.3,-4.745,-4.533
110.388307,-18.76,-3.358,-5.141
110.398945,-17.08,-1.87,-1.893
110.409583,-11.97,-1.585,3.346
110.420221,-8.75,-2.444,5.398
110.430859,-9.66,-5.449,6.716
110.441497,-10.57,-10.586,10.857
110.452135,-11.76,-15.054,13.623
110.462806,-12.6,-18.08,12.236
110.473477,-13.09,-19.017,9.086
110.484148,-12.11,-17.878,6.657
110.494819,-8.75,-15.688,2.707
110.50549,-5.04,-13.151,-1.608
110.516161,-2.24,-10.089,-4.054
110.526832,0.84,-6.898,-4.415
110.537503,2.1,-4.404,-4.046
110.548174,1.96,-2.255,-2.53
110.558845,1.68,-0.848,-1.642
110.569516,1.05,-0.45,-1.075
110.580187,-0.7,-0.207,-1.245
110.590895,-3.29,-0.438,-1.143
110.601603,-4.13,-0.989,-0.032
110.612311,-5.46,-1.456,-1.82
110.623019,-7.42,-1.043,-5.373
110.633727,-7.98,-0.212,-8.069
110.644435,-9.1,-0.208,-9.704
110.655143,-10.57,-0.363,-11.65
110.665851,-12.11,-0.642,-12.481
110.676559,-12.81,-0.821,-13.081
110.687267,-12.6,-0.391,-13.503
110.697975,-11.9,0.391,-13.507
110.708683,-10.22,1.267,-12.429
110.719441,-8.47,1.171,-9.46
110.730199,-5.81,0.628,-6.784
110.740957,-4.2,-0.041,-4.201
110.751715,-3.29,-0.657,-2.319
110.762473,-3.64,-1.436,-0.324
110.773231,-4.97,-2.181,0.682
110.783989,-6.72,-2.826,0.71
110.794747,-6.79,-2.916,-0.798
110.805505,-6.72,-3.398,-2.092
110.816263,-6.23,-4.566,-2.724
110.827021,-5.53,-5.823,-2.448
110.837779,-5.74,-6.987,-2.298
110.848547,-6.23,-8.443,-1.702
110.859315,-7.91,-11.52,-1.178
110.870083,-10.15,-15.097,-0.245
110.880851,-14.35,-20.709,1.751
110.891619,-14.56,-26.442,4.436
110.902387,-18.83,-30.469,0.669
110.913155,-21.42,-32.842,-1.597
110.923923,-22.12,-32.161,-3.041
110.934691,-24.29,-29.44,-5.973
110.945459,-24.78,-26.642,-6.119
110.956227,-22.89,-23.544,-6.355
110.966995,-20.16,-21.144,-8.277
110.977763,-18.55,-19.761,-8.46
110.988542,-18.34,-19.23,-6.234
110.999321,-19.67,-18.479,-2.832
111.0101,-20.93,-17.388,-1.36
111.020879,-22.05,-16.155,-2.706
111.031658,-20.93,-14.968,-5.411
111.042437,-17.85,-14.988,-8.116
111.053216,-14.28,-15.779,-9.677
111.063995,-10.78,-18.184,-9.746
111.074774,-7.49,-20.523,-8.168
111.085553,-5.18,-22.376,-6.931
111.096332,-4.13,-24.075,-6.164
111.107111,-5.6,-25.551,-4.648
111.117874,-6.72,-27.842,-2.137
111.128637,-8.96,-30.424,0.819
111.1394,-10.08,-32.111,3.934
111.150163,-11.55,-32.532,5.921
111.160926,-12.81,-32.139,6.914
111.171689,-13.65,-30.979,5.981
111.182452,-13.09,-29.735,4.566
111.193215,-13.58,-28.794,2.457
111.203978,-14.35,-27.643,1.168
111.214741,-14.42,-27.387,0.928
111.225504,-13.02,-27.124,2.254
111.236267,-10.92,-26.122,3.426
111.24703,-9.1,-24.54,4.131
111.257823,-7.49,-22.387,4.014
111.268616,-6.09,-19.966,3.587
111.279409,-5.18,-18.024,3.859
111.290202,-4.62,-16.791,6.138
111.300995,-3.99,-15.173,9.053
111.311788,-3.22,-12.881,11.376
111.322581,-3.36,-10.221,11.205
111.333374,-2.45,-7.002,9.072
111.344167,-0.63,-3.482,6.849
111.35496,1.33,-1.471,4.716
111.365753,2.66,-0.04,3.049
111.376546,3.15,0.726,2.332
111.38736,3.36,0.527,1.444
111.398174,2.24,0.219,-0.032
