Time,AccelerometerX,AccelerometerY,AccelerometerZ
70.005148,-0.549,-9.819,-1.014
70.014816,-0.392,-10.051,-1.055
70.024484,-0.314,-10.335,-1.026
70.034152,-0.353,-10.464,-0.969
70.04382,-0.353,-10.38,-0.994
70.053488,-0.392,-10.296,-1.019
70.063156,-0.431,-10.296,-1.019
70.072824,-0.51,-10.367,-1.071
70.082492,-0.588,-10.212,-1.044
70.09216,-0.628,-10.069,-1.178
70.101828,-0.588,-9.848,-1.298
70.111496,-0.549,-9.642,-1.342
70.121164,-0.471,-9.467,-1.43
70.130832,-0.471,-9.324,-1.564
70.1405,-0.392,-9.219,-1.705
70.150177,-0.275,-8.967,-1.78
70.159854,-0.235,-8.676,-1.848
70.169531,-0.314,-8.128,-1.792
70.179208,-0.275,-7.94,-1.958
70.188885,-0.314,-8.094,-1.985
70.198562,-0.392,-8.358,-2.071
70.208239,-0.471,-8.544,-2.144
70.217916,-0.549,-8.744,-2.139
70.227593,-0.628,-8.937,-2.173
70.23727,-0.745,-9.176,-2.176
70.246947,-0.824,-9.292,-2.196
70.256624,-0.745,-9.292,-2.196
70.266301,-0.745,-9.215,-2.182
70.275978,-0.706,-9.092,-2.201
70.285677,-0.667,-9.046,-2.232
70.295376,-0.588,-9.162,-2.253
70.305075,-0.51,-9.31,-2.319
70.314774,-0.51,-9.51,-2.314
70.324473,-0.51,-9.601,-2.251
70.334172,-0.549,-9.499,-2.153
70.343871,-0.628,-9.383,-2.132
70.35357,-0.667,-9.383,-2.132
70.363269,-0.785,-9.396,-2.055
70.372968,-0.863,-9.217,-1.944
70.382667,-0.941,-9.062,-1.917
70.392366,-1.059,-9.21,-1.982
70.402065,-1.098,-9.603,-2.012
70.411764,-1.138,-9.803,-2.007
70.421461,-1.177,-9.878,-2.26
70.431158,-1.059,-11.139,-3.239
70.440855,-1.098,-12.903,-3.629
70.450552,-1.294,-13.45,-3.009
70.460249,-1.216,-12.216,-2.552
70.469946,-0.941,-10.405,-2.432
70.479643,-0.549,-9.308,-2.557
70.48934,-0.157,-9.321,-2.48
70.499037,0.157,-9.837,-2.491
70.508734,0.314,-10.328,-2.419
70.518431,0.431,-10.38,-2.348
70.528128,0.549,-10.303,-2.335
70.537825,0.588,-10.18,-2.353
70.547522,0.706,-10.046,-2.21
70.557241,0.863,-10.003,-2.003
70.56696,0.902,-9.914,-1.828
70.576679,1.059,-9.846,-1.537
70.586398,1.334,-9.662,-1.226
70.596117,1.648,-9.489,-1.076
70.605836,1.961,-9.464,-0.992
70.615555,2.118,-9.53,-0.844
70.625274,2.118,-9.705,-0.755
70.634993,1.883,-9.957,-0.68
70.644712,1.608,-10.294,-0.58
70.654431,1.334,-10.507,-0.498
70.66415,1.059,-10.616,-0.558
70.673869,0.902,-10.455,-0.569
70.683582,0.706,-10.08,-0.662
70.693295,0.51,-9.737,-0.801
70.703008,0.275,-9.285,-0.88
70.712721,0,-8.91,-0.974
70.722434,-0.196,-8.703,-1.017
70.732147,-0.275,-8.651,-1.087
70.74186,-0.275,-8.599,-1.158
70.751573,-0.314,-8.54,-1.267
70.761286,-0.157,-8.442,-1.369
70.770999,0,-8.46,-1.492
70.780712,0.078,-8.59,-1.435
70.790425,0.078,-8.744,-1.462
70.800138,0,-8.785,-1.23
70.809851,-0.196,-8.799,-1.153
70.819553,-0.314,-9.03,-1.194
70.829255,-0.392,-9.392,-1.178
70.838957,-0.353,-9.599,-1.135
70.848659,-0.314,-9.542,-1.005
70.858361,-0.275,-9.412,-1.062
70.868063,-0.353,-9.38,-1.017
70.877765,-0.471,-9.394,-0.939
70.887467,-0.628,-9.478,-0.914
70.897169,-0.785,-9.858,-1.021
70.906871,-0.863,-10.528,-1.06
70.916573,-1.02,-11.078,-0.878
70.926275,-1.177,-11.414,-0.778
70.935977,-1.412,-11.998,-1.08
70.945679,-1.648,-13.355,-1.518
70.955406,-1.765,-14.3,-1.127
70.965133,-1.726,-14.611,-0.943
70.97486,-1.53,-14.295,-0.927
70.984587,-1.334,-13.402,-0.571
70.994314,-1.138,-12.052,-0.094
71.004041,-0.902,-10.75,-0.023
71.013768,-0.981,-10.105,-0.069
71.023495,-1.177,-10.33,-0.149
71.033222,-1.334,-10.616,0.12
71.042949,-1.53,-10.546,0.172
71.052676,-1.687,-10.237,0.226
71.062403,-1.804,-10.089,0.292
71.07213,-1.883,-10.25,0.304
71.081852,-1.883,-10.341,0.367
71.091574,-1.883,-10.335,0.329
71.101296,-1.844,-10.146,0.163
71.111018,-1.804,-9.876,0.21
71.12074,-1.648,-9.746,0.154
71.130462,-1.373,-9.68,0.006
71.140184,-1.177,-9.621,-0.103
71.149906,-1.059,-9.323,-0.21
71.159628,-1.059,-8.942,-0.342
71.16935,-1.02,-8.585,-0.558
71.179072,-0.941,-8.326,-0.671
71.188794,-0.863,-7.965,-0.687
71.198516,-0.667,-7.635,-0.749
71.208238,-0.314,-7.383,-0.824
71.217975,0,-7.278,-0.965
71.227712,0.314,-7.342,-1.056
71.237449,0.588,-7.451,-1.115
71.247186,0.745,-7.456,-1.315
71.256923,0.785,-7.526,-1.367
71.26666,0.745,-7.54,-1.29
71.276397,0.745,-7.74,-1.285
71.286134,0.588,-8.212,-1.09
71.295871,0.235,-8.79,-0.753
71.305608,-0.275,-9.303,-0.326
71.315345,-0.824,-9.564,0.026
71.325082,-1.334,-9.664,0.367
71.334819,-1.687,-9.814,0.54
71.344546,-1.961,-10.041,0.699
71.354273,-2.236,-10.307,0.851
71.364,-2.393,-10.618,1.035
71.373727,-2.589,-10.678,1.144
71.383454,-2.707,-10.537,1.249
71.393181,-2.824,-10.259,1.258
71.402908,-3.02,-9.982,1.267
71.412635,-3.177,-9.75,1.308
71.422362,-3.256,-9.564,1.381
71.432089,-3.256,-9.694,1.437
71.441816,-3.099,-9.984,1.506
71.451543,-2.942,-10.198,1.588
71.46127,-2.746,-10.082,1.608
71.470997,-2.471,-9.998,1.583
71.480743,-2.157,-10.012,1.66
71.490489,-2.001,-10.018,1.699
71.500235,-1.648,-10.057,1.692
71.509981,-1.294,-10.641,1.39
71.519727,-1.02,-12.159,0.963
71.529473,-0.941,-13.468,1.608
71.539219,-0.941,-13.15,2.74
71.548965,-0.824,-11.954,2.513
71.558711,-0.667,-11.209,2.126
71.568457,-0.353,-11.289,2.351
71.578203,0.235,-11.666,2.683
71.587949,0.745,-11.654,2.844
71.597695,1.059,-11.216,2.842
71.607425,0.981,-10.9,2.858
71.617155,0.745,-10.836,2.949
71.626885,0.549,-10.966,3.006
71.636615,0.471,-11.179,3.087
71.646345,0.51,-11.445,3.24
71.656075,0.549,-11.473,3.394
71.665805,0.785,-11.216,3.519
71.675535,1.138,-10.868,3.58
71.685265,1.491,-10.468,3.571
71.694995,1.608,-10.282,3.644
71.704725,1.648,-10.159,3.626
71.714455,1.687,-10.191,3.58
71.724185,1.687,-10.273,3.367
71.733915,1.765,-10.407,3.224
71.743651,1.726,-10.411,3.024
71.753387,1.569,-10.255,2.812
71.763123,1.294,-9.968,2.544
71.772859,0.941,-9.65,2.321
71.782595,0.706,-9.307,2.183
71.792331,0.745,-8.771,2.078
71.802067,1.098,-8.362,1.792
71.811803,1.373,-8.16,1.549
71.821539,1.373,-8.062,1.446
71.831275,1.02,-8.119,1.317
71.841011,0.628,-8.267,1.251
71.850747,0.431,-8.273,1.29
71.860483,0.431,-8.203,1.342
71.870211,0.667,-8.146,1.471
71.879939,0.785,-8.171,1.387
71.889667,0.785,-8.242,1.335
71.899395,0.706,-8.389,1.269
71.909123,0.667,-8.601,1.112
71.918851,0.706,-8.846,1.149
71.928579,0.863,-9.001,1.122
71.938307,0.981,-9.201,1.126
71.948035,0.941,-9.316,1.106
71.957763,0.785,-9.246,1.158
71.967491,0.588,-9.176,1.21
71.977219,0.314,-9.221,1.242
71.986947,0.196,-9.369,1.176
71.996675,0.196,-9.639,1.128
72.006413,0.078,-9.941,1.035
72.016151,0.078,-10.359,0.922
72.025889,0.039,-10.728,0.976
72.035627,-0.392,-10.832,1.117
72.045365,-0.706,-10.646,1.19
72.055103,-1.098,-11.068,0.876
72.064841,-1.334,-11.216,1.488
72.074579,-1.53,-10.702,1.738
72.084317,-1.687,-10.75,1.331
72.094055,-1.726,-11.673,1.367
72.103793,-1.844,-12.114,2.285
72.113531,-1.922,-11.639,2.528
72.123269,-2.001,-10.909,2.458
72.133003,-2.236,-10.275,2.251
72.142737,-2.354,-9.875,2.242
72.152471,-2.511,-9.475,2.233
72.162205,-2.511,-8.909,2.412
72.171939,-2.471,-8.537,2.558
72.181673,-2.354,-8.498,2.564
72.191407,-2.157,-8.796,2.671
72.201141,-1.961,-9.171,2.764
72.210875,-1.844,-9.468,2.871
72.220609,-1.726,-9.63,2.883
72.230343,-1.608,-9.7,2.83
72.240077,-1.451,-9.739,2.824
72.249811,-1.334,-9.662,2.837
72.259545,-1.177,-9.525,2.742
72.269272,-1.02,-9.589,2.651
72.278999,-0.902,-9.712,2.669
72.288726,-0.824,-9.814,2.571
72.298453,-0.706,-9.737,2.585
72.30818,-0.588,-9.53,2.542
72.317907,-0.51,-9.284,2.505
72.327634,-0.431,-9.046,2.508
72.337361,-0.431,-8.839,2.464
72.347088,-0.431,-8.832,2.426
72.356815,-0.353,-9.057,2.346
72.366542,-0.314,-9.373,2.33
72.376269,-0.275,-9.605,2.29
72.385996,-0.275,-9.528,2.303
72.395723,-0.314,-9.43,2.201
72.405421,-0.471,-9.269,2.19
72.415119,-0.628,-8.96,2.244
72.424817,-0.745,-8.573,2.312
72.434515,-0.785,-8.36,2.23
72.444213,-0.745,-8.391,2.185
72.453911,-0.706,-8.578,2.112
72.463609,-0.706,-8.81,2.071
72.473307,-0.706,-9.003,2.037
72.483005,-0.745,-8.971,2.083
72.492703,-0.824,-8.648,2.06
72.502401,-0.902,-8.255,2.089
72.512099,-1.059,-8.01,2.053
72.521797,-1.177,-8.094,2.078
72.531495,-1.177,-8.255,2.089
72.541186,-1.255,-8.476,2.21
72.550877,-1.294,-8.714,2.208
72.560568,-1.216,-8.875,2.219
72.570259,-1.177,-8.953,2.205
72.57995,-1.177,-8.978,2.121
72.589641,-1.177,-8.925,2.051
72.599332,-1.255,-8.848,2.065
72.609023,-1.334,-8.796,1.994
72.618714,-1.373,-8.925,2.051
72.628405,-1.412,-9.184,2.165
72.638096,-1.451,-9.43,2.201
72.647787,-1.451,-9.675,2.237
72.657478,-1.491,-9.907,2.196
72.667141,-1.412,-10.093,2.124
72.676804,-1.412,-10.228,1.981
72.686467,-1.373,-10.175,1.91
72.69613,-1.491,-9.937,1.912
72.705793,-1.451,-9.594,1.774
72.715456,-1.451,-9.355,1.776
72.725119,-1.373,-9.278,1.79
72.734782,-1.373,-9.355,1.776
72.744445,-1.334,-9.573,1.658
72.754108,-1.334,-10.055,1.453
72.763771,-1.373,-10.864,1.072
72.773434,-1.412,-11.825,1.101
72.783097,-1.373,-12.132,1.486
72.79276,-1.491,-12.141,1.086
72.802417,-1.608,-13.134,0.393
72.812074,-1.373,-13.684,1.252
72.821731,-1.177,-12.845,1.917
72.831388,-0.824,-11.796,1.385
72.841045,-0.628,-11.346,0.867
72.850702,-0.588,-11.83,0.901
72.860359,-0.431,-12.502,1.102
72.870016,-0.235,-12.698,1.306
72.879673,-0.314,-12.427,1.354
72.88933,-0.471,-12.041,1.422
72.898987,-0.51,-11.945,1.558
72.908644,-0.471,-12.075,1.615
72.918301,-0.392,-12.186,1.795
72.927932,-0.314,-12.2,1.872
72.937563,-0.275,-12.161,1.879
72.947194,-0.314,-12.066,2.015
72.956825,-0.431,-11.782,1.985
72.966456,-0.588,-11.33,1.906
72.976087,-0.706,-10.846,1.872
72.985718,-0.785,-10.271,1.774
72.995349,-0.745,-9.696,1.676
73.00498,-0.667,-9.185,1.487
73.014611,-0.628,-8.841,1.349
73.024242,-0.706,-8.582,1.235
73.033873,-0.902,-8.446,1.14
73.043504,-1.098,-8.355,1.076
73.053135,-1.255,-8.31,1.044
73.062765,-1.334,-8.296,0.967
73.072395,-1.255,-8.314,0.844
73.082025,-1.138,-8.36,0.876
73.091655,-0.981,-8.398,0.869
73.101285,-0.902,-8.36,0.876
73.110915,-0.824,-8.321,0.883
73.120545,-0.745,-8.251,0.935
73.130175,-0.628,-8.167,0.91
73.139805,-0.588,-8.096,0.962
73.149435,-0.51,-8.096,0.962
73.159065,-0.314,-8.135,0.956
73.168695,-0.078,-8.173,0.949
73.178325,0.157,-8.335,0.96
73.187943,0.235,-8.528,0.926
73.197561,0.235,-8.58,0.996
73.207179,0.118,-8.51,1.049
73.216797,0.039,-8.394,1.069
73.226415,0.078,-8.31,1.044
73.236033,0.235,-8.444,0.901
73.245651,0.471,-8.732,0.731
73.255269,0.824,-8.957,0.651
73.264887,1.098,-8.996,0.644
73.274505,1.098,-8.776,0.524
73.284123,0.941,-8.53,0.487
73.293741,0.785,-8.471,0.378
73.303359,0.706,-8.651,0.267
73.312977,0.588,-8.798,0.201
73.322615,0.51,-9.01,0.044
73.332253,0.51,-9.137,-0.137
73.341891,0.235,-9.31,-0.287
73.351529,-0.157,-9.412,-0.385
73.361167,-0.628,-9.398,-0.462
73.370805,-1.059,-9.353,-0.494
73.380443,-1.412,-9.153,-0.499
73.390081,-1.687,-8.626,-0.326
73.399719,-1.922,-8.085,-0.231
73.409357,-2.197,-7.512,-0.09
73.418995,-2.393,-7.262,0.074
73.428633,-2.511,-7.487,-0.006
73.438271,-2.511,-8.537,-0.151
73.447921,-2.55,-10.48,-0.653
73.457571,-2.589,-12.687,-0.564
73.467221,-2.785,-14.438,-0.116
73.476871,-2.667,-15.366,-0.28
73.486521,-2.432,-15.42,-0.648
73.496171,-2.471,-14.813,-0.7
73.505821,-2.55,-13.82,-0.684
73.515471,-2.589,-12.743,-0.694
73.525121,-2.707,-11.918,-0.628
73.534771,-2.903,-11.7,-0.51
73.544421,-2.981,-12.023,-0.487
73.554071,-2.824,-12.675,-0.403
73.563721,-2.628,-13.127,-0.323
73.573371,-2.471,-13.077,-0.155
73.583025,-2.314,-13.032,-0.187
73.592679,-2.157,-12.846,-0.114
73.602333,-1.961,-12.691,-0.087
73.611987,-1.844,-12.448,0.115
73.621641,-1.844,-11.959,0.281
73.631295,-1.844,-11.109,0.431
73.640949,-1.804,-10.221,0.588
73.650603,-1.844,-9.403,0.692
73.660257,-1.804,-8.862,0.787
73.669911,-1.687,-8.682,0.899
73.679565,-1.451,-8.78,1.001
73.689219,-1.138,-8.71,1.053
73.698873,-0.902,-8.348,1.037
73.708527,-0.628,-8.019,0.976
73.718221,-0.51,-7.689,0.915
73.727915,-0.588,-7.374,0.93
73.737609,-0.745,-7.185,0.765
73.747303,-0.824,-7.224,0.758
73.756997,-0.902,-7.34,0.737
73.766691,-0.902,-7.378,0.73
73.776385,-0.667,-7.442,0.64
73.786079,-0.392,-7.421,0.524
73.795773,-0.157,-7.299,0.505
73.805467,0.039,-7.074,0.585
73.815161,0.039,-6.926,0.651
73.824855,-0.039,-6.642,0.621
73.834549,-0.235,-6.642,0.621
73.844269,-0.51,-7.042,0.63
73.853989,-0.667,-7.63,0.805
73.863709,-0.785,-8.226,1.019
73.873429,-0.824,-8.653,1.183
73.883149,-0.863,-8.951,1.29
73.892869,-0.902,-9.21,1.403
73.902589,-1.02,-9.616,1.451
73.912309,-1.098,-10.1,1.485
73.922029,-1.177,-10.521,1.61
73.931749,-1.216,-10.766,1.647
73.941469,-1.177,-10.58,1.719
73.951189,-1.177,-9.98,1.706
73.960909,-1.138,-9.373,1.653
73.970629,-1.294,-9.032,1.753
73.98035,-1.53,-9.028,1.953
73.990071,-1.765,-9.269,2.19
73.999792,-2.001,-9.482,2.271
74.009513,-2.118,-9.78,2.378
74.019234,-2.079,-10.032,2.453
74.028955,-1.961,-10.064,2.408
74.038676,-1.687,-10.03,2.215
74.048397,-1.451,-10.041,2.053
74.058118,-1.294,-10.355,1.799
74.067839,-1.373,-10.975,1.928
74.07756,-1.491,-11.352,2.26
74.087281,-1.648,-11.63,2.251
74.097002,-1.765,-12.354,1.845
74.106723,-1.765,-13.477,1.886
74.116444,-1.569,-14.322,2.613
74.126185,-1.098,-14.395,2.799
74.135926,-0.51,-13.715,2.561
74.145667,-0.039,-12.632,2.513
74.155408,0.392,-11.911,2.719
74.165149,0.588,-11.811,3.056
74.17489,0.471,-12.013,3.299
74.184631,0.235,-12.118,3.44
74.194372,-0.118,-12.072,3.408
74.204113,-0.471,-11.866,3.365
74.213854,-0.785,-11.529,3.265
74.223595,-0.981,-11.129,3.256
74.233336,-0.981,-10.818,3.071
74.243077,-0.824,-10.759,2.962
74.252809,-0.667,-10.58,3.074
74.262541,-0.51,-10.33,3.237
74.272273,-0.353,-9.866,3.319
74.282005,-0.196,-9.466,3.31
74.291737,-0.078,-9.266,3.305
74.301469,0,-9.15,3.326
74.311201,0.078,-9.028,3.308
74.320933,0.118,-8.821,3.264
74.330665,0.235,-8.639,3.137
74.340397,0.314,-8.573,2.989
74.350129,0.392,-8.63,2.86
74.359861,0.431,-8.7,2.808
74.369593,0.471,-8.725,2.723
74.379325,0.431,-8.641,2.698
74.389076,0.471,-8.539,2.796
74.398827,0.549,-8.466,2.61
74.408578,0.392,-8.414,2.539
74.418329,0.392,-8.341,2.353
74.42808,0.275,-8.303,2.36
74.437831,0.235,-8.264,2.367
74.447582,0.275,-8.239,2.451
74.457333,0.275,-8.369,2.508
74.467084,0.235,-8.582,2.589
74.476835,0.196,-8.848,2.742
74.486586,0.118,-9.184,2.842
74.496337,0.039,-9.507,2.864
74.506088,-0.157,-9.971,2.783
74.515838,-0.314,-10.325,2.76
74.525588,-0.392,-10.48,2.733
74.535338,-0.353,-10.396,2.708
74.545088,-0.314,-10.091,2.562
74.554838,-0.275,-9.671,2.437
74.564588,-0.235,-9.328,2.299
74.574338,-0.196,-9.094,2.101
74.584088,-0.118,-9.007,1.837
74.593838,0.078,-9.16,1.571
74.603588,0.275,-9.455,1.44
74.613338,0.51,-9.782,1.263
74.623088,0.745,-10.032,1.099
74.632838,0.824,-10.05,0.976
74.642588,0.902,-9.869,0.849
74.652321,0.863,-9.487,0.717
74.662054,0.863,-8.926,0.697
74.671787,0.745,-8.403,0.669
74.68152,0.628,-8.067,0.569
74.691253,0.588,-8.033,0.376
74.700986,0.549,-8.41,0.031
74.710719,0.549,-9.269,-0.519
74.720452,0.51,-10.628,-0.719
74.730185,0.275,-11.605,-0.373
74.739918,0.078,-11.943,-0.035
74.749651,-0.078,-12.034,0.029
74.759384,-0.314,-11.628,-0.019
74.769117,-0.588,-10.957,0.02
74.77885,-0.51,-10.162,-0.199
74.788601,-0.628,-9.776,-0.808
74.798352,-0.628,-9.958,-1.357
74.808103,-0.431,-10.735,-1.694
74.817854,-0.353,-11.671,-1.58
74.827605,-0.196,-12.059,-1.409
74.837356,-0.039,-11.898,-1.421
74.847107,0.275,-11.389,-1.371
74.856858,0.588,-11.132,-1.246
74.866609,0.902,-11.166,-1.053
74.87636,1.294,-11.446,-0.823
74.886111,1.765,-11.775,-0.762
74.895862,2.197,-12.15,-0.669
74.905613,2.589,-12.178,-0.514
74.915367,2.903,-12.153,-0.43
74.925121,2.981,-12.128,-0.346
74.934875,2.942,-11.857,-0.298
74.944629,2.707,-11.13,-0.13
74.954383,2.432,-10.221,-0.089
74.964137,2.001,-9.66,-0.11
74.973891,1.491,-9.292,-0.165
74.983645,1.138,-9.246,-0.196
74.993399,1.02,-9.335,-0.371
75.003153,0.981,-9.483,-0.437
75.012907,1.02,-9.483,-0.437
75.022661,0.902,-9.269,-0.519
75.032415,0.706,-8.908,-0.535
75.042169,0.471,-8.392,-0.524
75.05191,0.353,-8.069,-0.547
75.061651,0.392,-8.003,-0.694
75.071392,0.431,-8.203,-0.69
75.081133,0.706,-8.446,-0.892
75.090874,1.02,-8.671,-0.971
75.100615,1.255,-8.651,-1.087
75.110356,1.412,-8.367,-1.117
75.120097,1.334,-8.058,-1.062
75.129838,1.255,-7.826,-1.021
75.139579,1.216,-7.756,-0.969
75.14932,1.334,-7.801,-0.937
75.159061,1.687,-8.026,-1.017
75.168802,2.001,-8.521,-1.144
75.178543,1.961,-8.946,-1.219
75.188264,1.765,-9.376,-1.494
75.197985,1.334,-9.776,-1.485
75.207706,0.863,-10.021,-1.448
75.217427,0.588,-9.976,-1.48
75.227148,0.51,-9.705,-1.432
75.236869,0.353,-9.108,-1.208
75.24659,0,-8.381,-1.04
75.256311,-0.431,-7.91,-0.996
75.266032,-0.902,-7.678,-0.956
75.275753,-1.294,-7.474,-0.76
75.285474,-1.687,-7.249,-0.681
75.295195,-1.765,-7.101,-0.615
75.304916,-1.883,-7.328,-1.133
75.314637,-1.726,-8.617,-1.958
75.324365,-2.079,-9.899,-1.467
75.334093,-2.393,-10.644,-1.08
75.343821,-2.471,-11.3,-1.196
75.353549,-2.354,-12.173,-1.668
75.363277,-1.883,-13.398,-1.725
75.373005,-1.334,-13.991,-1.073
75.382733,-0.785,-13.95,-0.627
75.392461,-0.039,-14.005,-0.996
75.402189,0.549,-14.3,-1.127
75.411917,1.294,-14.775,-0.693
75.421645,2.236,-14.657,-0.234
75.431373,3.099,-13.918,0.095
75.441101,3.609,-13.102,0.438
75.450819,3.53,-12.584,0.888
75.460537,3.217,-12.45,1.031
75.470255,2.903,-12.432,1.154
75.479973,2.589,-12.289,1.02
75.489691,2.157,-12.03,0.906
75.499409,1.844,-11.616,0.82
75.509127,1.608,-11.182,0.617
75.518845,1.216,-10.684,0.506
75.528563,1.098,-10.046,0.499
75.538281,1.098,-9.394,0.415
75.547999,1.138,-8.878,0.426
75.557717,1.334,-8.555,0.403
75.567435,1.53,-8.433,0.385
75.577153,1.687,-8.439,0.424
75.586835,1.844,-8.496,0.294
75.596517,1.804,-8.605,0.235
75.606199,1.844,-8.721,0.215
75.615881,1.765,-8.721,0.215
75.625563,1.608,-8.658,0.306
75.635245,1.451,-8.517,0.41
75.644927,1.216,-8.369,0.476
75.654609,1.059,-8.26,0.535
75.664291,0.981,-8.137,0.517
75.673973,1.098,-8.008,0.46
75.683655,1.216,-8.053,0.492
75.693337,1.216,-8.176,0.51
75.703019,1.098,-8.228,0.581
75.712701,0.941,-8.287,0.69
75.722372,0.824,-8.403,0.669
75.732043,0.628,-8.589,0.597
75.741714,0.588,-8.821,0.556
75.751385,0.51,-8.867,0.587
75.761056,0.314,-8.867,0.587
75.770727,-0.039,-8.976,0.528
75.780398,-0.471,-9.092,0.508
75.790069,-0.785,-9.137,0.54
75.79974,-0.785,-9.214,0.526
75.809411,-0.471,-9.323,0.467
75.819082,-0.275,-9.453,0.524
75.828753,-0.196,-9.376,0.538
75.838424,-0.157,-9.214,0.526
75.848064,-0.196,-9.13,0.501
75.857704,-0.275,-9.098,0.547
75.867344,-0.314,-9.053,0.515
75.876984,-0.314,-9.098,0.547
75.886624,-0.275,-8.957,0.651
75.896264,-0.157,-8.687,0.699
75.905904,-0.078,-8.494,0.733
75.915544,-0.118,-8.314,0.844
75.925184,-0.235,-8.23,0.819
75.934824,-0.431,-8.269,0.812
75.944464,-0.667,-8.653,0.506
75.954104,-0.902,-9.989,-0.049
75.963744,-0.981,-11.655,0.136
75.973384,-0.981,-13.025,0.452
75.983021,-0.941,-13.941,0.45
75.992658,-0.981,-14.482,0.354
76.002295,-0.941,-14.941,0.472
76.011932,-0.667,-15.122,0.6
76.021569,-0.353,-14.647,0.843
76.031206,-0.078,-13.654,0.859
76.040843,0.118,-12.707,0.906
76.05048,0.078,-12.345,0.89
76.060117,0.039,-12.584,0.888
76.069754,-0.039,-12.92,0.988
76.079391,-0.196,-13.064,1.122
76.089028,-0.392,-12.986,1.136
76.098665,-0.628,-12.754,1.177
76.108282,-0.706,-12.484,1.224
76.117899,-0.941,-12.077,1.176
76.127516,-1.098,-11.496,1.04
76.137133,-1.255,-10.978,0.813
76.14675,-1.255,-10.596,0.681
76.156367,-1.098,-10.235,0.665
76.165984,-0.941,-9.719,0.676
76.175601,-0.941,-9.042,0.676
76.185218,-1.098,-8.333,0.721
76.194835,-1.216,-7.764,0.662
76.204452,-1.334,-7.59,0.574
76.214069,-1.451,-7.821,0.533
76.223686,-1.53,-8.014,0.499
76.233303,-1.491,-7.987,0.344
76.24293,-1.373,-7.862,0.087
76.252557,-1.255,-7.746,0.108
76.262184,-1.294,-7.676,0.16
76.271811,-1.255,-7.49,0.233
76.281438,-1.177,-7.265,0.312
76.291065,-0.941,-7.124,0.417
76.300692,-0.745,-7.292,0.467
76.310319,-0.588,-7.492,0.471
76.319946,-0.392,-7.633,0.367
76.329573,-0.275,-7.844,0.21
76.3392,-0.235,-7.837,0.172
76.348827,-0.235,-7.58,0.296
76.358454,-0.314,-7.181,0.287
76.368076,-0.471,-6.819,0.271
76.377698,-0.549,-6.949,0.328
76.38732,-0.628,-7.419,0.285
76.396942,-0.785,-8.089,0.247
76.406564,-1.02,-8.646,0.467
76.416186,-1.255,-8.68,0.66
76.425808,-1.294,-8.539,0.765
76.43543,-1.216,-8.567,0.919
76.445052,-1.138,-8.601,1.112
76.454674,-1.138,-8.905,1.258
76.464296,-1.216,-9.875,0.888
76.473918,-1.255,-11.655,0.813
76.48354,-1.098,-13.118,1.431
76.493162,-0.785,-14.204,1.04
76.502785,-0.431,-15.834,0.116
76.512408,-0.314,-17.674,0.389
76.522031,0.196,-17.769,1.607
76.531654,0.824,-15.756,1.484
76.541277,0.981,-13.391,0.945
76.5509,1.098,-11.943,0.642
76.560523,1.255,-11.964,0.758
76.570146,1.216,-12.393,1.161
76.579769,1.177,-12.259,1.304
76.589392,0.941,-12.148,1.124
76.599015,0.471,-12.47,1.147
76.608638,-0.039,-12.968,1.258
76.618261,-0.471,-13.045,1.245
76.627884,-0.745,-12.825,1.124
76.637503,-1.02,-12.566,1.011
76.647122,-1.216,-12.282,0.981
76.656741,-1.451,-11.882,0.972
76.66636,-1.608,-11.205,0.972
76.675979,-1.765,-10.334,1.006
76.685598,-1.687,-9.307,0.828
76.695217,-1.687,-8.519,0.649
76.704836,-1.648,-8.137,0.517
76.714455,-1.608,-8.092,0.485
76.724074,-1.648,-8.176,0.51
76.733693,-1.687,-8.169,0.472
76.743312,-1.687,-8.194,0.387
76.752931,-1.687,-8.149,0.356
76.76255,-1.648,-8.149,0.356
76.772191,-1.687,-7.969,0.467
76.781832,-1.648,-7.814,0.494
76.791473,-1.53,-7.365,0.653
76.801114,-1.412,-7.183,0.526
76.810755,-1.373,-7.383,0.53
76.820396,-1.451,-7.674,0.599
76.830037,-1.412,-7.694,0.715
76.839678,-1.334,-7.508,0.787
76.849319,-1.216,-7.283,0.867
76.85896,-1.059,-7.237,0.835
76.868601,-0.941,-7.494,0.71
76.878242,-0.785,-7.989,0.583
76.887883,-0.667,-8.485,0.456
76.897548,-0.471,-8.748,0.369
76.907213,-0.471,-8.858,0.31
76.916878,-0.392,-8.735,0.292
76.926543,-0.235,-8.664,0.344
76.936208,-0.118,-8.748,0.369
76.945873,0.039,-8.826,0.356
76.955538,0.039,-8.955,0.413
76.965203,0.039,-8.955,0.413
76.974868,-0.118,-8.892,0.503
76.984533,-0.235,-8.808,0.478
76.994198,-0.353,-8.91,0.381
77.003863,-0.549,-9.007,0.483
77.013528,-0.667,-9.623,0.135
77.023193,-1.098,-10.866,-0.044
77.032886,-1.687,-12.371,0.129
77.042579,-1.844,-13.9,0.218
77.052272,-1.687,-15.111,0.084
77.061965,-1.726,-15.704,0.059
77.071658,-1.765,-15.729,-0.025
77.081351,-1.373,-15.252,-0.021
77.091044,-0.981,-14.143,0.016
77.100737,-0.588,-12.989,0.02
77.11043,-0.392,-12.168,-0.114
77.120123,-0.471,-11.987,-0.241
77.129816,-0.785,-12.284,-0.135
77.139509,-1.02,-12.536,-0.06
77.149202,-1.334,-12.459,-0.046
77.158895,-1.844,-12.259,-0.051
77.168589,-2.275,-12.059,-0.055
77.178283,-2.432,-11.866,-0.021
77.187977,-2.511,-11.732,0.122
77.197671,-2.589,-11.425,0.415
77.207365,-2.55,-10.884,0.511
77.217059,-2.471,-10.375,0.56
77.226753,-2.432,-10.014,0.544
77.236447,-2.393,-9.828,0.617
77.246141,-2.314,-9.61,0.735
77.255835,-2.118,-9.41,0.731
77.265529,-1.883,-9.332,0.744
77.275223,-1.726,-9.132,0.74
77.284917,-1.608,-8.873,0.626
77.294611,-1.569,-8.519,0.649
77.30433,-1.608,-8.253,0.497
77.314049,-1.608,-8.028,0.576
77.323768,-1.608,-7.905,0.558
77.333487,-1.491,-7.828,0.571
77.343206,-1.334,-7.603,0.651
77.352925,-1.138,-7.487,0.671
77.362644,-0.941,-7.487,0.671
77.372363,-0.941,-7.687,0.676
77.382082,-1.059,-7.971,0.706
77.391801,-1.255,-8.171,0.71
77.40152,-1.138,-8.21,0.703
77.411239,-1.059,-8.312,0.606
77.420958,-1.098,-8.344,0.56
77.430693,-1.216,-8.319,0.644
77.440428,-1.373,-8.273,0.612
77.450163,-1.569,-8.28,0.651
77.459898,-1.687,-8.312,0.606
77.469633,-1.726,-8.537,0.526
77.479368,-1.687,-8.853,0.51
77.489103,-1.569,-9.117,0.424
77.498838,-1.491,-9.148,0.378
77.508573,-1.412,-8.967,0.251
77.518308,-1.412,-8.967,0.251
77.528043,-1.294,-8.63,0.151
77.537778,-1.216,-8.249,0.019
77.547513,-1.098,-8.003,-0.017
77.557248,-1.02,-7.965,-0.01
77.566976,-0.981,-8.158,-0.044
77.576704,-0.902,-8.389,-0.085
77.586432,-0.863,-8.867,-0.09
77.59616,-0.745,-9.576,-0.135
77.605888,-0.706,-10.478,-0.214
77.615616,-0.667,-11.893,-0.544
77.625344,-0.824,-13.282,-0.35
77.635072,-0.824,-13.552,0.279
77.6448,-0.667,-12.786,0.454
77.654528,-0.588,-12.277,-0.173
77.664256,-0.667,-13.173,-0.291
77.673984,-0.549,-13.175,0.624
77.683712,-0.235,-11.759,0.954
77.69344,-0.039,-10.428,0.631
77.703154,0.078,-10.114,0.208
77.712868,0.078,-11.005,0.29
77.722582,0.078,-12.032,0.468
77.732296,-0.039,-12.691,0.59
77.74201,-0.196,-12.602,0.765
77.751724,-0.392,-12.423,0.877
77.761438,-0.549,-12.516,1.179
77.771152,-0.588,-12.62,1.32
77.780866,-0.549,-12.57,1.488
77.79058,-0.431,-12.454,1.508
77.800294,-0.235,-12.409,1.476
77.810008,-0.118,-12.195,1.395
77.819722,-0.078,-11.652,1.251
77.829436,-0.118,-10.98,1.051
77.839135,-0.275,-10.314,0.89
77.848834,-0.431,-9.771,0.747
77.858533,-0.667,-9.28,0.674
77.868232,-0.785,-8.737,0.531
77.877931,-0.824,-8.285,0.451
77.88763,-0.824,-7.871,0.365
77.897329,-0.706,-7.651,0.244
77.907028,-0.549,-7.476,0.156
77.916727,-0.431,-7.431,0.124
77.926426,-0.353,-7.417,0.046
77.936125,-0.392,-7.371,0.015
77.945824,-0.353,-7.217,0.042
77.955523,-0.392,-6.953,0.128
77.965222,-0.392,-6.715,0.13
77.974881,-0.275,-6.669,0.099
77.98454,-0.275,-7.031,0.115
77.994199,-0.431,-7.431,0.124
78.003858,-0.471,-7.778,0.062
78.013517,-0.549,-8.221,-0.135
78.023176,-0.588,-8.562,-0.235
78.032835,-0.667,-8.671,-0.294
78.042494,-0.588,-8.524,-0.228
78.052153,-0.51,-8.253,-0.181
78.061812,-0.314,-8.053,-0.185
78.071471,-0.235,-8.074,-0.069
78.08113,-0.235,-8.326,0.006
78.090789,-0.275,-8.533,0.049
78.100448,-0.392,-8.694,0.06
78.110071,-0.51,-8.873,-0.051
78.119694,-0.628,-9.707,-0.517
78.129317,-1.02,-11.273,-0.673
78.13894,-1.255,-12.612,-0.312
78.148563,-1.373,-13.639,-0.134
78.158186,-1.294,-14.475,-0.362
78.167809,-1.412,-15.172,-0.246
78.177432,-1.648,-15.409,0.191
78.187055,-1.726,-15.172,0.432
78.196678,-1.491,-14.361,0.575
78.206301,-1.255,-13.389,0.706
78.215924,-0.981,-12.75,0.699
78.225547,-0.863,-12.723,0.545
78.23517,-0.863,-12.93,0.588
78.244799,-0.941,-13.027,0.69
78.254428,-1.177,-12.982,0.659
78.264057,-1.569,-12.95,0.704
78.273686,-1.804,-12.795,0.731
78.283315,-1.961,-12.609,0.804
78.292944,-1.883,-12.261,0.865
78.302573,-1.804,-11.668,0.89
78.312202,-1.726,-10.991,0.89
78.321831,-1.608,-10.339,0.806
78.33146,-1.53,-9.782,0.585
78.341089,-1.569,-9.478,0.44
78.350718,-1.608,-9.321,0.229
78.360347,-1.53,-9.087,0.031
78.369961,-1.412,-8.892,-0.174
78.379575,-1.294,-8.664,-0.333
78.389189,-1.177,-8.38,-0.362
78.398803,-0.981,-7.928,-0.442
78.408417,-0.941,-7.412,-0.431
78.418031,-0.941,-6.876,-0.535
78.427645,-0.981,-6.631,-0.572
78.437259,-0.941,-6.579,-0.642
78.446873,-0.824,-6.669,-0.579
78.456487,-0.667,-6.722,-0.508
78.466101,-0.51,-6.735,-0.431
78.475715,-0.431,-6.64,-0.294
78.485329,-0.353,-6.653,-0.217
78.494943,-0.314,-6.847,-0.251
78.504585,-0.353,-7.187,-0.351
78.514227,-0.431,-7.485,-0.244
78.523869,-0.392,-7.678,-0.278
78.533511,-0.431,-7.84,-0.267
78.543153,-0.549,-7.93,-0.203
78.552795,-0.628,-7.867,-0.113
78.562437,-0.745,-7.86,-0.151
78.572079,-0.902,-8.137,-0.16
78.581721,-1.02,-8.571,0.042
78.591363,-0.941,-8.767,0.247
78.601005,-0.785,-8.883,0.226
78.610647,-0.706,-9.792,-0.492
78.620289,-0.863,-12.082,-1.055
78.629931,-1.255,-13.914,-0.382
78.639579,-1.451,-14.286,0.15
78.649227,-1.491,-13.37,0.152
78.658875,-1.569,-13.375,-0.725
78.668523,-1.726,-14.598,-0.343
78.678171,-1.569,-14.152,0.97
78.687819,-1.02,-12.741,1.099
78.697467,-0.588,-12.161,0.524
78.707115,-0.471,-12.832,0.486
78.716763,-0.431,-13.995,0.759
78.726411,-0.51,-14.25,1.072
78.736059,-0.628,-13.786,1.154
78.745707,-0.745,-13.218,1.095
78.755355,-0.863,-13.275,0.965
78.764984,-0.941,-13.688,1.052
78.774613,-1.02,-13.643,1.02
78.784242,-1.02,-13.159,0.986
78.793871,-1.02,-12.423,0.877
78.8035,-0.902,-11.596,0.704
78.813129,-0.785,-10.769,0.531
78.822758,-0.667,-10.051,0.299
78.832387,-0.549,-9.571,0.065
78.842016,-0.51,-9.073,-0.046
78.851645,-0.51,-8.48,-0.022
78.861274,-0.549,-7.783,-0.138
78.870903,-0.51,-7.015,-0.201
78.880532,-0.471,-6.388,-0.37
78.890161,-0.431,-5.981,-0.417
78.899805,-0.353,-5.981,-0.417
78.909449,-0.471,-6.201,-0.297
78.919093,-0.431,-6.363,-0.285
78.928737,-0.392,-6.517,-0.313
78.938381,-0.431,-6.608,-0.249
78.948025,-0.431,-6.647,-0.256
78.957669,-0.471,-6.763,-0.276
78.967313,-0.471,-6.892,-0.219
78.976957,-0.51,-7.156,-0.306
78.986601,-0.549,-7.651,-0.433
78.996245,-0.588,-8.069,-0.547
79.005889,-0.549,-8.462,-0.576
79.015533,-0.628,-8.701,-0.578
79.025167,-0.628,-8.887,-0.651
79.034801,-0.588,-8.919,-0.696
79.044435,-0.51,-8.737,-0.824
79.054069,-0.471,-8.428,-0.769
79.063703,-0.353,-8.235,-0.735
79.073337,-0.353,-8.069,-0.547
79.082971,-0.353,-8.205,-0.451
79.092605,-0.353,-8.574,-0.396
79.102239,-0.353,-9.562,-0.889
79.111873,-0.549,-11.257,-0.989
79.121507,-0.745,-12.571,-0.544
79.131141,-0.706,-13.405,-0.332
79.140775,-0.785,-14.002,-0.557
79.150409,-0.941,-14.582,-0.659
79.160058,-1.098,-15.093,-0.471
79.169707,-1.177,-15.063,-0.187
79.179356,-1.02,-14.498,-0.007
79.189005,-0.824,-13.711,0.052
79.198654,-0.667,-13.241,0.095
79.208303,-0.588,-13.086,0.122
79.217952,-0.667,-13.03,0.252
79.227601,-0.785,-12.959,0.304
79.23725,-0.981,-12.927,0.349
79.246899,-1.255,-12.955,0.504
79.256548,-1.53,-12.743,0.661
79.266197,-1.726,-12.311,0.697
79.275846,-1.844,-11.852,0.579
79.28549,-1.961,-11.414,0.576
79.295134,-1.922,-10.916,0.465
79.304778,-1.804,-10.394,0.438
79.314422,-1.648,-9.741,0.354
79.324066,-1.451,-9.076,0.192
79.33371,-1.255,-8.462,0.101
79.343354,-1.138,-8.087,0.008
79.352998,-0.981,-7.803,-0.022
79.362642,-0.902,-7.674,-0.078
79.372286,-0.863,-7.474,-0.083
79.38193,-0.902,-7.253,-0.204
79.391574,-0.863,-7.117,-0.299
79.401218,-0.863,-7.033,-0.324
79.410862,-0.785,-6.878,-0.297
79.420533,-0.588,-6.576,-0.204
79.430204,-0.353,-6.324,-0.279
79.439875,-0.275,-6.253,-0.226
79.449546,-0.314,-6.435,-0.099
79.459217,-0.431,-6.747,0.085
79.468888,-0.549,-7.178,0.049
79.478559,-0.667,-7.571,0.019
79.48823,-0.785,-7.978,0.067
79.497901,-0.902,-8.146,0.117
79.507572,-0.941,-8.012,0.26
79.517243,-0.902,-7.626,0.328
79.526914,-0.902,-7.317,0.383
79.536585,-0.863,-7.317,0.383
79.546255,-0.863,-7.537,0.503
79.555925,-0.863,-7.796,0.617
79.565595,-0.863,-7.989,0.583
79.575265,-0.824,-8.573,0.281
79.584935,-0.745,-10.307,-0.503
79.594605,-0.981,-12.587,-0.228
79.604275,-1.177,-13.579,1.111
79.613945,-1.334,-13.016,1.529
79.623615,-1.255,-11.982,1.313
79.633285,-1.255,-12.161,1.201
79.642955,-1.294,-13.309,1.836
79.652625,-1.294,-14.211,2.433
79.662295,-0.981,-14.681,2.39
79.671965,-0.785,-14.956,2.143
79.681657,-0.549,-15.279,2.165
79.691349,-0.353,-15.352,2.352
79.701041,-0.235,-14.99,2.336
79.710733,-0.196,-14.454,2.231
79.720425,-0.235,-13.829,2.302
79.730117,-0.275,-13.179,2.456
79.739809,-0.314,-12.573,2.404
79.749501,-0.275,-12.145,2.24
79.759193,-0.235,-11.932,2.158
79.768885,-0.235,-11.75,2.031
79.778577,-0.196,-11.477,1.84
79.788269,-0.157,-10.998,1.606
79.797961,-0.157,-10.423,1.508
79.80765,-0.157,-9.648,1.406
79.817339,-0.275,-8.957,1.328
79.827028,-0.275,-8.376,1.192
79.836717,-0.275,-7.994,1.06
79.846406,-0.353,-7.794,1.055
79.856095,-0.431,-7.671,1.037
79.865784,-0.51,-7.567,0.896
79.875473,-0.549,-7.599,0.851
79.885162,-0.588,-7.612,0.928
79.894851,-0.471,-7.555,1.058
79.90454,-0.392,-7.446,1.117
79.914229,-0.235,-7.137,1.171
79.923918,-0.039,-6.86,1.18
79.933607,0.078,-6.86,1.18
79.943313,0.078,-7.112,1.255
79.953019,0.039,-7.48,1.31
79.962725,-0.039,-7.855,1.403
79.972431,-0.196,-8.282,1.567
79.982137,-0.392,-8.657,1.66
79.991843,-0.549,-8.839,1.787
80.001549,-0.667,-8.969,1.844
80.011255,-0.706,-8.982,1.921
80.020961,-0.706,-8.937,1.89
80.030667,-0.745,-8.666,1.937
80.040373,-0.706,-8.396,1.985
80.050079,-0.588,-8.28,2.005
80.059785,-0.549,-8.351,1.953
80.069486,-0.51,-8.628,1.944
80.079187,-0.549,-8.796,1.994
80.088888,-0.549,-8.816,2.11
80.098589,-0.549,-8.675,2.214
80.10829,-0.588,-8.598,2.228
80.117991,-0.667,-9.184,2.165
80.127692,-0.824,-10.493,2.133
80.137393,-1.294,-12.079,2.769
80.147094,-1.608,-13.434,3.447
80.156795,-1.334,-14.356,3.483
80.166496,-1.216,-14.563,3.526
80.176197,-1.216,-14.522,3.295
80.185898,-1.294,-14.586,3.204
80.195599,-1.412,-14.515,3.256
80.205316,-1.334,-14.154,3.24
80.215033,-1.138,-13.629,2.974
80.22475,-0.981,-13.227,2.726
80.234467,-0.941,-13.063,2.476
80.244184,-1.02,-13.004,2.367
80.253901,-1.059,-12.913,2.304
80.263618,-1.138,-12.648,2.151
80.273335,-1.255,-12.273,2.058
80.283052,-1.373,-11.723,1.876
80.292769,-1.491,-11.225,1.765
80.302486,-1.608,-10.734,1.692
80.312203,-1.726,-10.159,1.594
80.32192,-1.804,-9.694,1.437
80.33165,-1.844,-9.389,1.292
80.34138,-1.844,-9.157,1.333
80.35111,-1.765,-8.926,1.374
80.36084,-1.726,-8.655,1.421
80.37057,-1.569,-8.423,1.462
80.3803,-1.451,-8.248,1.374
80.39003,-1.373,-8.344,1.237
80.39976,-1.412,-8.498,1.21
80.40949,-1.334,-8.446,1.14
80.41922,-1.294,-8.31,1.044
80.42895,-1.138,-8.096,0.962
80.43868,-1.059,-7.985,0.783
80.44841,-0.902,-7.971,0.706
80.45814,-0.824,-8.01,0.699
80.467875,-0.745,-8.092,0.485
80.47761,-0.667,-8.285,0.451
80.487345,-0.628,-8.471,0.378
80.49708,-0.549,-8.587,0.358
80.506815,-0.51,-8.51,0.372
80.51655,-0.471,-8.039,0.415
80.526285,-0.628,-7.735,0.269
80.53602,-0.745,-7.644,0.206
80.545755,-0.902,-8.108,0.124
80.55549,-0.981,-8.739,0.092
80.565225,-0.941,-8.992,0.167
80.57496,-0.745,-9.292,-0.165
80.584695,-0.667,-9.639,-0.226
80.59443,-0.706,-9.66,-0.11
80.604184,-0.902,-9.492,-0.16
80.613938,-1.02,-9.078,-0.246
80.623692,-1.02,-8.478,-0.26
80.633446,-0.941,-7.924,-0.242
80.6432,-0.824,-7.562,-0.258
80.652954,-0.628,-7.633,-0.31
80.662708,-0.471,-8.212,-0.412
80.672462,-0.353,-8.735,-0.385
80.682216,-0.353,-9.069,-0.524
80.69197,-0.431,-9.517,-0.921
80.701724,-0.51,-10.585,-1.189
80.711478,-0.706,-11.625,-0.935
80.721232,-0.941,-12.016,-0.526
80.730993,-1.294,-11.796,-0.646
80.740754,-1.412,-11.721,-1.071
80.750515,-1.687,-12.428,-1.355
80.760276,-1.765,-12.864,-0.914
80.770037,-1.648,-11.764,-0.601
80.779798,-1.412,-10.412,-1.039
80.789559,-1.059,-9.603,-1.335
80.79932,-0.628,-9.514,-1.16
80.809081,-0.353,-9.421,-0.785
80.818842,-0.314,-8.889,-0.412
80.828603,-0.275,-8.126,0.001
80.838364,-0.235,-7.408,0.446
80.848125,0,-7.342,0.976
80.857886,0.275,-7.928,1.589
80.867649,0.392,-8.766,2.278
80.877412,0.392,-9.378,2.808
80.887175,0.628,-9.787,3.094
80.896938,0.902,-10.161,3.187
80.906701,1.059,-10.434,3.378
80.916464,1.177,-10.411,3.701
80.926227,1.255,-10.175,3.942
80.93599,1.216,-9.791,4.248
80.945753,1.098,-9.673,4.707
80.955516,0.981,-9.523,5.212
80.965279,0.902,-9.648,5.469
80.975042,0.941,-9.836,5.634
80.984805,1.138,-9.941,5.775
80.994568,1.334,-9.786,5.803
81.004348,1.412,-9.361,5.878
81.014128,1.373,-8.832,5.812
81.023908,1.373,-8.464,5.757
81.033688,1.412,-8.334,5.7
81.043468,1.491,-8.436,5.602
81.053248,1.608,-8.55,5.343
81.063028,1.569,-8.593,5.137
81.072808,1.608,-8.514,4.912
81.082588,1.53,-8.293,4.791
81.092368,1.451,-7.828,4.634
81.102148,1.255,-7.432,4.425
81.111928,1.059,-7.289,4.291
81.121708,1.02,-7.307,4.168
81.131492,1.059,-7.332,4.084
81.141276,1.177,-7.305,3.93
81.15106,1.216,-7.11,3.725
81.160844,1.334,-6.955,3.753
81.170628,1.412,-6.832,3.734
81.180412,1.373,-6.737,3.871
81.190196,1.177,-6.771,4.064
81.19998,0.981,-6.973,4.307
81.209764,0.863,-7.214,4.543
81.219548,0.706,-7.441,4.702
81.229332,0.549,-7.5,4.812
81.239116,0.392,-7.603,4.714
81.2489,0.196,-8.193,4.45
81.258684,0,-9.28,4.737
81.26846,-0.235,-10.232,5.166
81.278236,-0.196,-11.125,5.487
81.288012,-0.078,-11.874,5.673
81.297788,-0.314,-12.106,6.31
81.307564,-0.588,-11.713,7.016
81.31734,-0.549,-11.133,7.119
81.327116,-0.549,-10.474,6.996
81.336892,-0.785,-10.061,6.909
81.346668,-0.981,-10.075,6.987
81.356444,-0.981,-10.422,6.925
81.36622,-0.863,-10.988,6.746
81.375996,-0.706,-11.438,6.587
81.385772,-0.667,-11.47,6.541
81.395548,-0.667,-10.972,6.43
81.405286,-0.667,-10.345,6.262
81.415024,-0.745,-9.847,6.15
81.424762,-0.902,-9.429,6.264
81.4345,-0.981,-9.17,6.15
81.444238,-1.098,-9.027,6.016
81.453976,-1.177,-9.045,5.893
81.463714,-1.138,-9.032,5.816
81.473452,-1.059,-8.948,5.791
81.48319,-0.941,-8.811,5.696
81.492928,-0.863,-8.707,5.555
81.502666,-0.745,-8.655,5.484
81.512404,-0.667,-8.55,5.343
81.522142,-0.706,-8.375,5.255
81.53188,-0.785,-8.084,5.187
81.541614,-0.863,-7.807,5.196
81.551348,-0.902,-7.671,5.1
81.561082,-0.785,-7.657,5.023
81.570816,-0.745,-7.823,4.834
81.58055,-0.745,-8.112,4.664
81.590284,-0.824,-8.291,4.553
81.600018,-0.824,-8.316,4.469
81.609752,-0.745,-8.091,4.548
81.619486,-0.588,-7.653,4.546
81.62922,-0.314,-7.414,4.548
81.638954,-0.039,-7.453,4.541
81.648688,0.078,-7.548,4.405
81.658422,0.039,-7.805,4.28
81.668119,-0.118,-8.034,4
81.677816,-0.275,-8.637,3.576
81.687513,-0.392,-9.787,3.094
81.69721,-0.471,-10.361,3.192
81.706907,-0.471,-10.566,2.996
81.716604,-0.471,-11.384,2.215
81.726301,-0.588,-12.366,2.36
81.735998,-0.392,-11.393,3.846
81.745695,0.353,-9.982,3.976
81.755392,0.941,-9.661,3.514
81.765089,1.255,-10.414,3.262
81.774786,1.804,-11.723,3.231
81.784483,2.275,-12.834,3.433
81.79418,2.471,-13.37,3.538
81.803863,2.118,-13.677,3.245
81.813546,1.648,-14.029,2.983
81.823229,1.294,-14.093,2.892
81.832912,0.981,-13.877,2.572
81.842595,0.471,-13.468,2.286
81.852278,0,-12.898,1.988
81.861961,-0.353,-12.216,1.511
81.871644,-0.51,-11.618,1.058
81.881327,-0.314,-11.041,0.722
81.89101,0.078,-10.35,0.645
81.900693,0.51,-9.473,0.64
81.910376,0.863,-8.526,0.687
81.920059,1.059,-7.494,0.71
81.929708,1.177,-6.642,0.621
81.939357,1.255,-6.106,0.517
81.949006,1.098,-5.913,0.551
81.958655,1.02,-6.028,0.53
81.968304,0.824,-6.401,0.385
81.977953,0.588,-6.89,0.219
81.987602,0.392,-7.174,0.249
81.997251,0.314,-7.019,0.276
82.0069,0.157,-6.742,0.285
82.016549,0.039,-6.497,0.249
82.026198,-0.078,-6.335,0.237
82.035847,-0.196,-6.167,0.187
82.045496,-0.314,-6.206,0.18
82.055145,-0.314,-6.565,-0.042
82.064782,-0.196,-7.142,-0.383
82.074419,-0.039,-7.842,-0.706
82.084056,0.039,-8.324,-0.91
82.093693,-0.039,-8.478,-0.937
82.10333,-0.235,-7.919,-0.719
82.112967,-0.471,-7.101,-0.615
82.122604,-0.628,-6.367,-0.485
82.132241,-0.667,-5.892,-0.242
82.141878,-0.588,-5.892,-0.242
82.151515,-0.588,-6.683,-0.501
82.161152,-0.785,-8.905,-1.451
82.170789,-1.177,-11.312,-1.357
82.180426,-1.255,-13.105,-1.355
82.190046,-1.138,-14.4,-1.464
82.199666,-1.216,-14.445,-1.432
82.209286,-1.608,-13.623,-1.127
82.218906,-1.883,-12.33,-0.78
82.228526,-1.883,-11.25,-0.351
82.238146,-1.608,-10.653,-0.126
82.247766,-1.334,-10.787,-0.269
82.257386,-1.216,-11.9,-0.505
82.267006,-1.177,-13.023,-0.464
82.276626,-1.255,-13.134,-0.284
82.286246,-1.412,-12.58,-0.266
82.295866,-1.726,-11.787,-0.246
82.305486,-2.079,-11.271,-0.235
82.315106,-2.314,-10.969,-0.142
82.324738,-2.511,-10.725,0.061
82.33437,-2.589,-10.525,0.056
82.344002,-2.55,-10.287,0.058
82.353634,-2.354,-10.048,0.06
82.363266,-2.236,-9.873,-0.028
82.372898,-2.079,-9.614,-0.142
82.38253,-2.04,-9.376,-0.14
82.392162,-1.844,-9.144,-0.099
82.401794,-1.687,-8.778,0.085
82.411426,-1.491,-8.508,0.133
82.421058,-1.255,-8.48,-0.022
82.43069,-1.098,-8.646,-0.21
82.440322,-1.059,-8.833,-0.283
82.449955,-1.138,-8.883,-0.451
82.459588,-1.334,-8.714,-0.501
82.469221,-1.53,-8.474,-0.737
82.478854,-1.804,-8.415,-0.846
82.488487,-2.001,-8.292,-0.865
82.49812,-2.001,-8.074,-0.746
82.507753,-1.961,-7.708,-0.562
82.517386,-1.961,-7.499,-0.844
82.527019,-2.118,-8.365,-1.355
82.536652,-2.354,-10.267,-2.089
82.546285,-2.824,-12.56,-2.414
82.555918,-3.373,-13.875,-1.73
82.565551,-3.766,-13.764,-1.232
82.575184,-3.844,-13.802,-1.916
82.58482,-3.491,-14.046,-1.441
82.594456,-3.02,-13.359,-0.364
82.604092,-2.393,-12.541,-0.26
82.613728,-1.648,-12.566,-0.344
82.623364,-1.177,-13.307,-0.434
82.633,-0.941,-14.011,-0.28
82.642636,-0.941,-14.136,-0.023
82.652272,-1.098,-13.814,-0.046
82.661908,-1.334,-13.47,-0.184
82.671544,-1.53,-13.123,-0.123
82.68118,-1.608,-12.609,0.127
82.690816,-1.648,-11.784,0.193
82.700452,-1.569,-10.971,0.097
82.710088,-1.412,-10.435,-0.008
82.719749,-1.098,-10.169,-0.16
82.72941,-0.902,-10.091,-0.146
82.739071,-0.745,-9.944,-0.08
82.748732,-0.706,-9.578,0.104
82.758393,-0.706,-9.192,0.172
82.768054,-0.706,-9.03,0.16
82.777715,-0.706,-8.953,0.174
82.787376,-0.902,-8.864,0.349
82.797037,-1.177,-8.576,0.519
82.806698,-1.451,-8.383,0.553
82.816359,-1.491,-8.421,0.547
82.82602,-1.334,-8.551,0.603
82.835681,-1.177,-8.687,0.699
82.845342,-1.098,-8.869,0.826
82.855003,-1.098,-8.96,0.89
82.864664,-1.098,-9.026,1.037
82.874325,-1.098,-8.98,1.006
82.883986,-1.098,-9.11,1.062
82.893647,-1.138,-9.278,1.112
82.903308,-1.255,-9.362,1.137
82.912969,-1.608,-9.407,1.169
82.92263,-1.961,-9.439,1.124
82.932291,-2.314,-9.503,1.033
82.941952,-2.55,-9.612,0.974
82.951613,-2.667,-9.914,0.881
82.961274,-2.746,-10.087,0.731
82.970935,-2.628,-10.246,0.504
82.980624,-2.236,-10.528,0.295
82.990313,-1.844,-10.889,0.311
83.000002,-1.412,-11.339,0.152
83.009691,-1.138,-11.893,0.133
83.01938,-1.059,-11.841,0.74
83.029069,-1.177,-11.112,1.347
83.038758,-1.216,-10.553,1.565
83.048447,-1.216,-10.296,1.69
83.058136,-1.412,-10.468,1.54
83.067825,-1.608,-10.837,1.594
83.077514,-1.648,-10.53,1.888
83.087203,-1.569,-9.744,1.946
83.096892,-1.569,-9.078,1.785
83.106582,-1.648,-8.994,1.76
83.116272,-1.726,-9.305,1.944
83.125962,-1.726,-9.771,2.101
83.135652,-1.726,-10.139,2.156
83.145342,-1.608,-10.371,2.115
83.155032,-1.412,-10.648,2.106
83.164722,-1.02,-10.95,2.013
83.174412,-0.588,-11.123,1.863
83.184102,-0.196,-11.116,1.824
83.193792,0.118,-10.902,1.742
83.203482,0.235,-10.752,1.569
83.213172,0.196,-10.584,1.519
83.222862,0,-10.493,1.456
83.232552,-0.196,-10.462,1.501
83.242266,-0.392,-10.391,1.553
83.25198,-0.471,-10.328,1.644
83.261694,-0.588,-10.205,1.626
83.271408,-0.588,-10.121,1.601
83.281122,-0.588,-10.107,1.524
83.290836,-0.51,-10.055,1.453
83.30055,-0.549,-10.178,1.472
83.310264,-0.549,-10.248,1.419
83.319978,-0.549,-10.255,1.458
83.329692,-0.549,-10.132,1.44
83.339406,-0.628,-9.964,1.39
83.34912,-0.628,-9.88,1.365
83.358834,-0.667,-9.764,1.385
83.368553,-0.667,-9.539,1.465
83.378272,-0.628,-9.3,1.467
83.387991,-0.628,-9.132,1.417
83.39771,-0.628,-9.016,1.437
83.407429,-0.628,-8.785,1.478
83.417148,-0.588,-8.823,1.471
83.426867,-0.628,-8.985,1.483
83.436586,-0.706,-9.396,1.331
83.446305,-0.785,-9.859,1.249
83.456024,-1.02,-10.144,1.278
83.465743,-1.059,-9.989,1.306
83.475462,-1.02,-10.18,1.033
83.485181,-0.981,-11.048,0.76
83.4949,-0.745,-11.671,1.129
83.50461,-0.314,-11.389,1.338
83.51432,0,-10.928,0.981
83.52403,0.196,-10.675,0.906
83.53374,0.392,-10.637,0.913
83.54345,0.588,-10.791,0.885
83.55316,0.745,-10.668,0.867
83.56287,0.745,-10.353,0.883
83.57258,0.706,-10.01,0.744
83.58229,0.706,-9.725,0.715
83.592,0.785,-9.596,0.658
83.60171,0.981,-9.48,0.678
83.61142,1.138,-9.332,0.744
83.62113,1.294,-9.21,0.726
83.63084,1.412,-9.241,0.681
83.640572,1.451,-9.255,0.758
83.650304,1.373,-9.107,0.824
83.660036,1.412,-9.153,0.856
83.669768,1.255,-9.289,0.951
83.6795,1.177,-9.289,0.951
83.689232,1.138,-9.398,0.892
83.698964,1.02,-9.528,0.949
83.708696,0.941,-9.528,0.949
83.718428,0.785,-9.605,0.935
83.72816,0.628,-9.76,0.908
83.737892,0.471,-9.907,0.842
83.747624,0.314,-10.069,0.854
83.757356,0.196,-10.062,0.815
83.767081,0.039,-10.016,0.783
83.776806,0,-10.016,0.783
83.786531,0,-10.055,0.776
83.796256,0.118,-10.087,0.731
83.805981,0.314,-10.08,0.692
83.815706,0.51,-10.003,0.706
83.825431,0.667,-9.964,0.713
83.835156,0.745,-9.989,0.629
83.844881,0.785,-10.112,0.647
83.854606,0.745,-10.189,0.633
83.864331,0.706,-10.228,0.626
83.874056,0.588,-10.196,0.672
83.883781,0.431,-10.119,0.685
83.893506,0.235,-10.119,0.685
83.903223,0.078,-10.112,0.647
83.91294,-0.118,-10.112,0.647
83.922657,-0.314,-10.028,0.622
83.932374,-0.431,-10.014,0.544
83.942091,-0.51,-10.116,0.447
83.951808,-0.549,-10.148,0.401
83.961525,-0.549,-10.155,0.44
83.971242,-0.51,-10.116,0.447
83.980959,-0.353,-10.116,0.447
83.990676,-0.118,-10.2,0.472
84.000393,0.039,-10.253,0.542
84.01011,0.078,-10.26,0.581
84.019827,0.039,-10.182,0.594
84.029544,0.039,-10.189,0.633
84.039238,-0.039,-10.175,0.556
84.048932,0.039,-10.214,0.549
84.058626,-0.039,-10.355,0.445
84.06832,-0.118,-10.432,0.431
84.078014,-0.235,-10.489,0.301
84.087708,-0.392,-10.637,0.236
84.097402,-0.706,-10.721,0.261
84.107096,-0.981,-10.721,0.261
84.11679,-1.294,-10.644,0.274
84.126484,-1.412,-10.675,0.229
84.136178,-1.451,-10.971,0.097
84.145872,-1.334,-11.487,0.086
84.155566,-1.177,-11.798,0.27
84.16526,-1.059,-11.625,0.42
84.174957,-0.941,-11.175,0.579
84.184654,-0.981,-10.739,0.815
84.194351,-1.177,-10.187,1.072
84.204048,-1.334,-9.719,1.353
84.213745,-1.491,-9.521,1.587
84.223442,-1.608,-9.587,1.735
84.233139,-1.726,-9.871,1.765
84.242836,-1.922,-10.225,1.742
84.252533,-2.04,-10.341,1.722
84.26223,-2.04,-10.321,1.606
84.271927,-1.922,-10.121,1.601
84.281624,-1.687,-9.914,1.558
84.291321,-1.412,-9.721,1.592
84.301026,-1.177,-9.482,1.594
84.310731,-0.941,-9.3,1.467
84.320436,-0.785,-9.223,1.481
84.330141,-0.706,-9.146,1.494
84.339846,-0.706,-9.223,1.481
84.349551,-0.706,-9.23,1.519
84.359256,-0.706,-9.244,1.596
84.368961,-0.706,-9.405,1.608
84.378666,-0.706,-9.598,1.574
84.388371,-0.745,-9.882,1.603
84.398076,-0.706,-9.907,1.519
84.407781,-0.667,-9.862,1.487
84.417486,-0.706,-9.919,1.358
84.427191,-0.706,-9.912,1.319
84.436891,-0.745,-9.982,1.267
84.446591,-0.785,-9.937,1.235
84.456291,-0.824,-9.916,1.119
84.465991,-0.863,-9.748,1.069
84.475691,-0.941,-9.587,1.058
84.485391,-1.02,-9.419,1.008
84.495091,-1.059,-9.405,0.931
84.504791,-1.098,-9.469,0.84
84.514491,-1.059,-9.532,0.749
84.524191,-1.059,-9.532,0.749
84.533891,-1.059,-9.621,0.574
84.543591,-1.098,-9.73,0.515
84.553291,-1.138,-9.832,0.417
84.562991,-1.177,-9.871,0.41
84.572661,-1.216,-9.787,0.385
84.582331,-1.255,-9.626,0.374
84.592001,-1.373,-9.489,0.279
84.601671,-1.451,-9.244,0.242
84.611341,-1.648,-8.998,0.206
84.621011,-1.726,-8.848,0.033
84.630681,-1.765,-8.828,-0.083
84.640351,-1.726,-8.744,-0.108
84.650021,-1.765,-8.705,-0.101
84.659691,-1.726,-8.571,0.042
84.669361,-1.648,-8.321,0.206
84.679031,-1.491,-7.962,0.428
84.688701,-1.255,-7.724,0.431
84.698371,-1.02,-7.878,0.403
84.708018,-0.785,-8.419,0.308
84.717665,-0.588,-8.973,0.29
84.727312,-0.471,-9.212,0.288
84.736959,-0.51,-9.089,0.269
84.746606,-0.549,-8.837,0.194
84.756253,-0.628,-8.676,0.183
84.7659,-0.667,-8.733,0.053
84.775547,-0.745,-8.926,0.019
84.785194,-0.981,-9.01,0.044
84.794841,-1.177,-9.092,-0.169
84.804488,-1.451,-9.201,-0.228
84.814135,-1.648,-9.31,-0.287
84.823782,-1.804,-9.387,-0.301
84.833429,-1.765,-9.412,-0.385
84.843046,-1.687,-9.373,-0.378
84.852663,-1.53,-9.483,-0.437
84.86228,-1.648,-9.619,-0.342
84.871897,-1.804,-9.612,-0.38
84.881514,-1.961,-9.651,-0.387
84.891131,-2.118,-9.837,-0.46
84.900748,-2.157,-10.023,-0.533
84.910365,-2.157,-10.017,-0.571
84.919982,-2.079,-9.88,-0.667
84.929599,-2.001,-9.635,-0.703
84.939216,-2.001,-9.312,-0.726
84.948833,-2.04,-8.905,-0.774
84.95845,-2.04,-8.48,-0.699
84.968067,-1.961,-8.087,-0.669
84.977635,-1.883,-8.299,-0.826
84.987203,-1.922,-9.255,-1.273
84.996771,-1.922,-10.953,-1.812
85.006339,-2.157,-12.246,-1.482
85.015907,-2.589,-12.468,-1.123
85.025475,-3.02,-12.023,-1.164
85.035043,-3.373,-12.105,-1.378
85.044611,-3.295,-12.609,-1.228
85.054179,-2.864,-12.453,-0.762
85.063747,-2.511,-11.694,-0.548
85.073315,-2.04,-11.228,-0.705
85.082883,-1.726,-11.478,-0.869
85.092451,-1.53,-12.078,-0.855
85.102019,-1.491,-12.505,-0.691
85.111549,-1.804,-12.487,-0.569
85.121079,-2.079,-12.346,-0.464
85.130609,-2.197,-12.123,-0.146
85.140139,-2.157,-11.887,0.095
85.149669,-1.883,-11.475,0.247
85.159199,-1.451,-11.153,0.224
85.168729,-0.981,-11.023,0.167
85.178259,-0.628,-11.1,0.154
85.187789,-0.706,-10.973,0.336
85.197319,-0.941,-10.632,0.435
85.206849,-1.294,-10.323,0.49
85.216379,-1.53,-10.144,0.601
85.225909,-1.53,-10.041,0.699
85.235439,-1.451,-10.016,0.783
85.244974,-1.334,-9.978,0.79
85.254509,-1.138,-9.907,0.842
85.264044,-0.863,-9.791,0.863
85.273579,-0.588,-9.521,0.91
85.283114,-0.392,-9.335,0.983
85.292649,-0.235,-9.219,1.003
85.302184,-0.078,-9.451,0.963
85.311719,0.078,-9.741,1.031
85.321254,0.118,-9.755,1.108
85.330789,0.078,-9.748,1.069
85.340324,-0.078,-9.625,1.051
85.349859,-0.196,-9.464,1.04
85.359394,-0.353,-9.335,0.983
85.368928,-0.392,-9.166,0.933
85.378462,-0.471,-9.135,0.978
85.387996,-0.588,-9.057,0.992
85.39753,-0.745,-9.014,1.199
85.407064,-0.824,-8.887,1.381
85.416598,-0.863,-8.746,1.485
85.426132,-0.824,-8.764,1.362
85.435666,-0.785,-9.021,1.237
85.4452,-0.824,-9.355,1.099
85.454734,-0.902,-9.503,1.033
85.464268,-1.059,-9.335,0.983
85.473802,-1.255,-8.98,1.006
85.483336,-1.451,-8.567,0.919
85.49287,-1.53,-8.244,0.896
85.502413,-1.373,-8.142,0.994
85.511956,-0.981,-8.121,0.878
85.521499,-0.667,-8.251,0.935
85.531042,-0.431,-8.233,1.058
85.540585,-0.353,-8.212,0.942
85.550128,-0.471,-8.462,0.778
85.559671,-0.667,-8.835,0.633
85.569214,-0.863,-9.042,0.676
85.578757,-0.902,-8.894,0.742
85.5883,-0.902,-8.508,0.81
85.597843,-0.863,-8.198,0.865
85.607386,-0.785,-8.071,1.046
85.616929,-0.588,-8.214,1.18
85.626472,-0.471,-8.512,1.287
85.636022,-0.431,-8.848,1.387
85.645572,-0.392,-9.164,1.371
85.655122,-0.314,-9.428,1.285
85.664672,-0.353,-9.589,1.297
85.674222,-0.353,-9.505,1.272
85.683772,-0.353,-9.221,1.242
85.693322,-0.314,-8.66,1.221
85.702872,-0.275,-8.169,1.149
85.712422,-0.118,-7.737,1.185
85.721972,0.196,-7.517,1.064
85.731522,0.51,-7.549,1.019
85.741072,0.745,-7.755,1.062
85.750622,0.863,-7.98,0.983
85.760172,0.902,-8.301,0.767
85.769771,0.824,-8.964,0.69
85.77937,0.824,-9.796,0.663
85.788969,0.824,-11.182,0.617
85.798568,0.628,-12.423,1.554
85.808167,0.745,-13.047,2.161
85.817766,0.981,-13.468,2.286
85.827365,1.138,-13.745,2.277
85.836964,1.255,-14.204,2.395
85.846563,1.138,-14.399,2.599
85.856162,0.981,-14.047,2.861
85.865761,0.785,-13.422,2.931
85.87536,0.431,-13.138,2.901
85.884959,0.275,-13.281,3.035
85.894602,0.118,-13.484,3.279
85.904245,-0.118,-13.531,3.549
85.913888,-0.314,-13.463,3.84
85.923531,-0.588,-13.304,4.067
85.933174,-0.745,-13.181,4.049
85.942817,-1.02,-13.045,3.953
85.95246,-1.216,-12.838,3.91
85.962103,-1.373,-12.456,3.778
85.971746,-1.412,-12.029,3.615
85.981389,-1.294,-11.434,3.401
85.991032,-1.098,-10.839,3.187
86.000675,-0.981,-10.173,3.026
86.010318,-0.863,-9.546,2.858
86.019961,-0.706,-8.925,2.728
86.029654,-0.431,-8.421,2.578
86.039347,-0.275,-8.169,2.503
86.04904,-0.196,-8.103,2.355
86.058733,-0.196,-8.114,2.194
86.068426,-0.157,-8.21,2.058
86.078119,-0.235,-8.287,2.044
86.087812,-0.235,-8.28,2.005
86.097505,-0.196,-8.139,2.11
86.107198,-0.078,-7.928,2.267
86.116891,0.118,-7.696,2.307
86.126584,0.118,-7.503,2.342
86.136277,0.118,-7.401,2.439
86.14597,0.039,-7.453,2.51
86.155663,-0.039,-7.596,2.644
86.165382,-0.157,-7.737,2.539
86.175101,-0.196,-7.905,2.589
86.18482,-0.314,-8.048,2.723
86.194539,-0.353,-8.171,2.742
86.204258,-0.471,-8.389,2.623
86.213977,-0.588,-8.544,2.596
86.223696,-0.706,-8.737,2.562
86.233415,-0.745,-8.898,2.574
86.243134,-0.745,-9.007,2.514
86.252853,-0.706,-8.923,2.489
86.262572,-0.706,-8.723,2.485
86.272291,-0.706,-8.516,2.442
86.28201,-0.824,-8.51,2.403
86.291729,-0.902,-8.646,2.499
86.301494,-0.824,-8.916,2.451
86.311259,-0.824,-9.078,2.462
86.321024,-0.902,-9.116,2.455
86.330789,-0.902,-9.039,2.469
86.340554,-0.941,-8.73,2.524
86.350319,-0.981,-8.407,2.501
86.360084,-0.902,-8.344,2.592
86.369849,-0.863,-8.544,2.596
86.379614,-0.824,-8.919,2.689
86.389379,-0.824,-9.293,2.783
86.399144,-0.785,-9.493,2.787
86.408909,-0.785,-9.609,2.767
86.418674,-0.824,-9.641,2.721
86.428462,-0.863,-9.634,2.683
86.43825,-0.785,-9.466,2.633
86.448038,-0.667,-9.182,2.603
86.457826,-0.588,-9,2.476
86.467614,-0.588,-9.155,2.449
86.477402,-0.628,-9.823,2.171
86.48719,-0.667,-11.221,1.965
86.496978,-0.902,-12.6,2.558
86.506766,-0.863,-13.061,2.915
86.516554,-0.588,-13.045,2.599
86.526342,-0.392,-13.095,2.431
86.53613,-0.275,-12.925,2.819
86.545918,0.039,-12.036,2.976
86.555706,0.51,-11.016,2.837
86.565497,0.824,-10.523,2.526
86.575288,0.863,-11.052,2.592
86.585079,0.785,-11.911,2.719
86.59487,0.863,-12.527,3.049
86.604661,0.745,-12.529,3.288
86.614452,0.667,-12.259,3.335
86.624243,0.549,-12.079,3.447
86.634034,0.471,-12.061,3.569
86.643825,0.431,-12.075,3.647
86.653616,0.51,-12.068,3.608
86.663407,0.549,-12.086,3.485
86.673198,0.549,-12.072,3.408
86.682989,0.549,-11.954,3.19
86.69278,0.51,-11.811,3.056
86.702567,0.471,-11.507,2.91
86.712354,0.588,-11.075,2.946
86.722141,0.706,-10.602,2.751
86.731928,0.824,-9.975,2.583
86.741715,0.941,-9.348,2.415
86.751502,0.981,-8.812,2.31
86.761289,1.02,-8.416,2.101
86.771076,0.941,-8.189,1.942
86.780863,0.863,-8.092,1.839
86.79065,0.785,-8.123,1.794
86.800437,0.706,-8.239,1.774
86.810224,0.706,-8.407,1.824
86.820011,0.667,-8.53,1.842
86.829798,0.588,-8.53,1.842
86.839606,0.549,-8.569,1.835
86.849414,0.549,-8.523,1.803
86.859222,0.549,-8.471,1.733
86.86903,0.51,-8.264,1.689
86.878838,0.51,-8.103,1.678
86.888646,0.471,-7.903,1.674
86.898454,0.549,-7.755,1.739
86.908262,0.549,-7.485,1.787
86.91807,0.549,-7.298,1.86
86.927878,0.549,-7.183,1.88
86.937686,0.51,-7.137,1.848
86.947494,0.431,-7.233,1.712
86.957302,0.275,-7.387,1.685
86.967108,0.196,-7.619,1.644
86.976914,0.078,-7.773,1.617
86.98672,0.078,-7.889,1.596
86.996526,0.118,-7.858,1.642
87.006332,0.157,-7.503,1.664
87.016138,0.196,-7.026,1.669
87.025944,0.314,-6.824,1.426
87.03575,0.353,-7.119,1.294
87.045556,0.431,-7.505,1.226
87.055362,0.588,-7.674,1.276
87.065168,0.667,-7.417,1.401
87.074974,0.824,-7.167,1.564
87.08478,0.981,-7.174,1.603
87.094586,0.981,-7.605,1.567
87.104377,0.863,-8.439,1.778
87.114168,0.745,-9.26,1.912
87.123959,0.706,-9.996,2.021
87.13375,0.667,-10.416,2.147
87.143541,0.745,-10.689,2.337
87.153332,0.824,-11.143,2.656
87.163123,0.863,-11.895,3.081
87.172914,0.902,-12.829,3.633
87.182705,0.941,-13.967,3.99
87.192496,0.588,-15.031,4.599
87.202287,0.353,-15.758,5.108
87.212078,0.431,-15.958,5.113
87.221869,0.549,-15.569,4.942
87.23166,0.275,-14.62,4.751
87.241419,0.118,-13.399,4.608
87.251178,0.078,-12.17,4.187
87.260937,-0.039,-11.148,3.81
87.270696,-0.275,-10.698,3.292
87.280455,-0.471,-10.875,2.942
87.290214,-0.706,-11.395,2.731
87.299973,-0.902,-11.961,2.551
87.309732,-1.138,-12.243,2.342
87.319491,-1.294,-12.209,2.149
87.32925,-1.412,-12.143,2.001
87.339009,-1.412,-11.716,1.838
87.348768,-1.334,-11.155,1.817
87.358527,-1.216,-10.459,1.94
87.368286,-1.059,-9.964,2.067
87.378038,-0.902,-9.469,2.194
87.38779,-0.667,-9.103,2.378
87.397542,-0.549,-9.298,2.583
87.407294,-0.549,-9.862,2.842
87.417046,-0.51,-10.314,2.921
87.426798,-0.431,-10.436,2.94
87.43655,-0.392,-10.384,2.869
87.446302,-0.431,-10.293,2.805
87.456054,-0.471,-10.13,2.556
87.465806,-0.471,-9.768,2.54
87.475558,-0.431,-9.264,2.39
87.48531,-0.314,-8.65,2.299
87.495062,-0.196,-8.062,2.123
87.504793,-0.196,-7.546,2.135
87.514524,-0.078,-7.114,2.171
87.524255,-0.078,-6.992,2.153
87.533986,-0.039,-7.269,2.144
87.543717,-0.039,-7.669,2.153
87.553448,-0.078,-7.978,2.098
87.563179,-0.039,-8.003,2.014
87.57291,-0.039,-7.964,2.021
87.582641,0,-7.957,1.983
87.592372,0.078,-7.939,2.105
87.602103,0.196,-7.714,2.185
87.611834,0.275,-7.457,2.31
87.621565,0.392,-7.285,2.46
87.631296,0.431,-7.428,2.594
87.641,0.431,-7.841,2.68
87.650704,0.353,-8.389,2.623
87.660408,0.235,-8.841,2.703
87.670112,0.196,-9.087,2.739
87.679816,0.196,-9.094,2.778
87.68952,0.157,-8.848,2.742
87.699224,0.157,-8.719,2.685
87.708928,0.157,-8.628,2.621
87.718632,0.118,-8.614,2.544
87.728336,0.078,-8.555,2.435
87.73804,0.039,-8.398,2.224
87.747744,0.039,-8.287,2.044
87.757448,-0.078,-8.228,1.935
87.767152,-0.157,-8.221,1.896
87.776854,-0.157,-8.305,1.921
87.786556,-0.078,-8.564,2.035
87.796258,-0.078,-9.016,2.115
87.80596,-0.039,-9.384,2.169
87.815662,-0.039,-9.63,2.206
87.825364,0,-9.598,2.251
87.835066,-0.118,-9.373,2.33
87.844768,-0.157,-8.994,2.437
87.85447,-0.235,-8.691,2.53
87.864172,-0.275,-8.603,2.705
87.873874,-0.275,-9.094,2.778
87.883576,-0.353,-10.266,2.651
87.893278,-0.431,-11.9,2.881
87.902978,-0.392,-13.259,3.358
87.912678,-0.314,-13.781,3.385
87.922378,-0.157,-13.906,2.965
87.932078,-0.275,-13.793,3.224
87.941778,-0.078,-13.07,3.869
87.951478,0.51,-11.736,3.985
87.961178,1.098,-10.495,3.726
87.970878,1.491,-10.52,3.642
87.980578,1.608,-11.691,3.953
87.990278,1.765,-13.029,4.315
87.999978,1.922,-13.804,4.417
88.009678,1.804,-13.956,4.151
88.019378,1.608,-13.774,4.024
88.029078,1.53,-13.368,3.976
88.038756,1.412,-13.052,3.992
88.048434,1.373,-12.709,3.853
88.058112,1.373,-12.288,3.728
88.06779,1.334,-11.797,3.656
88.077468,1.255,-11.234,3.396
88.087146,1.059,-10.614,3.267
88.096824,0.824,-9.882,2.958
88.106502,0.588,-9.209,2.758
88.11618,0.353,-8.698,2.569
88.125858,0.157,-8.239,2.451
88.135536,0.078,-7.903,2.351
88.145214,0.039,-7.605,2.244
88.154892,0.039,-7.469,2.148
88.16457,0.039,-7.417,2.078
88.174218,0.078,-7.344,1.892
88.183866,0.118,-7.292,1.821
88.193514,0.157,-7.194,1.719
88.203162,0.157,-7.008,1.792
88.21281,0.157,-6.814,1.826
88.222458,0.157,-6.692,1.807
88.232106,0.078,-6.73,1.801
88.241754,-0.039,-6.808,1.787
88.251402,-0.118,-6.93,1.805
88.26105,-0.157,-7.221,1.873
88.270698,-0.196,-7.492,1.826
88.280346,-0.039,-7.537,1.858
88.289994,0.078,-7.53,1.819
88.299642,0.235,-7.678,1.753
88.309261,0.392,-7.928,1.589
88.31888,0.471,-8.307,1.483
88.328499,0.549,-8.514,1.526
88.338118,0.51,-8.378,1.43
88.347737,0.471,-8.094,1.401
88.357356,0.392,-7.855,1.403
88.366975,0.392,-7.823,1.449
88.376594,0.471,-7.721,1.546
88.386213,0.549,-7.517,1.742
88.395832,0.588,-7.33,1.814
88.405451,0.588,-7.551,1.935
88.41507,0.51,-7.992,2.176
88.424689,0.392,-8.45,2.294
88.434308,0.275,-8.825,2.387
88.443934,0.196,-9.289,2.305
88.45356,0.118,-9.843,2.287
88.463186,-0.078,-10.725,2.092
88.472812,-0.392,-11.775,2.624
88.482438,-0.471,-12.618,3.113
88.492064,-0.157,-13.486,2.84
88.50169,0,-14.297,2.697
88.511316,-0.078,-14.697,2.706
88.520942,-0.196,-14.445,2.631
88.530568,-0.314,-13.711,2.761
88.540194,-0.392,-12.809,2.84
88.54982,-0.353,-12.075,2.969
88.559446,-0.157,-11.72,2.992
88.569068,0,-11.798,2.978
88.57869,0.118,-12.036,2.976
88.588312,0.118,-12.261,2.897
88.597934,0,-12.416,2.869
88.607556,-0.118,-12.507,2.933
88.617178,-0.235,-12.229,2.942
88.6268,-0.353,-11.661,2.883
88.636422,-0.471,-11.107,2.901
88.646044,-0.51,-10.514,2.926
88.655666,-0.51,-10.03,2.892
88.665288,-0.471,-9.641,2.721
88.67491,-0.471,-9.35,2.653
88.684532,-0.431,-9.059,2.585
88.694154,-0.353,-8.782,2.594
88.703769,-0.118,-8.46,2.571
88.713384,0,-8.157,2.664
88.722999,0.118,-7.764,2.694
88.732614,0.157,-7.455,2.748
88.742229,0.118,-7.185,2.796
88.751844,0.118,-7.146,2.803
88.761459,0.039,-7.462,2.787
88.771074,-0.039,-7.778,2.771
88.780689,-0.118,-8.016,2.769
88.790304,-0.078,-8.1,2.794
88.799919,-0.078,-8.023,2.807
88.809534,0,-7.862,2.796
88.819149,0,-7.798,2.887
88.828764,-0.078,-7.832,3.08
88.83841,-0.157,-7.912,3.305
88.848056,-0.353,-7.978,3.453
88.857702,-0.431,-8.062,3.478
88.867348,-0.471,-8.287,3.398
88.876994,-0.471,-8.718,3.362
88.88664,-0.549,-9.137,3.248
88.896286,-0.628,-9.568,3.212
88.905932,-0.549,-9.884,3.196
88.915578,-0.392,-9.93,3.228
88.925224,-0.235,-9.743,3.301
88.93487,-0.118,-9.532,3.458
88.944516,-0.039,-9.43,3.555
88.954162,0.039,-9.359,3.608
88.963825,0,-9.282,3.621
88.973488,0,-9.082,3.617
88.983151,0.118,-8.875,3.573
88.992814,0.118,-8.687,3.407
89.002477,0.078,-8.68,3.369
89.01214,0,-8.964,3.398
89.021803,-0.196,-9.489,3.664
89.031466,-0.353,-9.989,4.014
89.041129,-0.431,-10.339,4.192
89.050792,-0.392,-10.57,4.151
89.060455,-0.196,-11.123,3.894
89.070118,-0.118,-11.956,4.106
89.079781,0.039,-12.431,4.54
89.089444,0.392,-12.484,4.61
89.099125,0.628,-12.159,4.349
89.108806,0.941,-11.822,4.249
89.118487,1.334,-11.629,4.283
89.128168,1.373,-11.597,4.328
89.137849,1.373,-11.597,4.328
89.14753,1.373,-11.534,4.419
89.157211,1.255,-11.509,4.503
89.166892,1.138,-11.575,4.651
89.176573,0.941,-11.581,4.689
89.186254,0.785,-11.445,4.594
89.195935,0.745,-11.379,4.446
89.205616,0.667,-11.288,4.383
89.215297,0.588,-11.229,4.274
89.224978,0.431,-11.041,4.108
89.234617,0.314,-10.704,4.008
89.244256,0.157,-10.245,3.889
89.253895,0.078,-9.675,3.592
89.263534,0.039,-9.157,3.364
89.273173,0,-8.684,3.169
89.282812,0,-8.257,3.005
89.292451,-0.039,-7.844,2.919
89.30209,-0.039,-7.437,2.871
89.311729,-0.039,-7.062,2.778
89.321368,-0.039,-6.81,2.703
89.331007,-0.078,-6.81,2.703
89.340646,-0.078,-7.017,2.746
89.350285,-0.118,-7.353,2.846
89.359924,-0.078,-7.63,2.837
89.369563,-0.039,-7.669,2.83
89.379155,0,-7.732,2.739
89.388747,0,-7.764,2.694
89.398339,0.039,-7.785,2.81
89.407931,0.118,-7.753,2.855
89.417523,0.196,-7.714,2.862
89.427115,0.157,-7.83,2.842
89.436707,0.157,-8.03,2.846
89.446299,0.118,-8.262,2.805
89.455891,0.118,-8.519,2.68
89.465483,0.118,-8.666,2.614
89.475075,0.118,-8.73,2.524
89.484667,0.078,-8.678,2.453
89.494259,0.118,-8.6,2.467
89.503851,0.118,-8.491,2.526
89.51344,0,-8.414,2.539
89.523029,-0.078,-8.498,2.564
89.532618,-0.196,-8.673,2.653
89.542207,-0.235,-8.866,2.619
89.551796,-0.275,-8.95,2.644
89.561385,-0.196,-8.821,2.587
89.570974,-0.118,-8.544,2.596
89.580563,-0.157,-8.466,2.61
89.590152,-0.235,-8.505,2.603
89.599741,-0.353,-9.112,2.655
89.60933,-0.588,-10.018,3.053
89.618919,-0.745,-10.893,3.496
89.628508,-0.667,-11.752,3.624
89.638086,-0.471,-12.37,3.515
89.647664,-0.51,-12.743,3.369
89.657242,-0.51,-12.8,3.24
89.66682,-0.667,-12.593,3.197
89.676398,-0.785,-12.282,3.013
89.685976,-0.824,-12.225,3.142
89.695554,-0.745,-12.188,3.387
89.705132,-0.431,-11.827,3.372
89.71471,-0.157,-11.427,3.362
89.724288,-0.196,-11.336,3.299
89.733866,-0.314,-11.588,3.374
89.743444,-0.431,-11.841,3.449
89.753022,-0.431,-11.886,3.481
89.7626,-0.431,-11.802,3.456
89.772157,-0.431,-11.627,3.367
89.781714,-0.431,-11.234,3.396
89.791271,-0.431,-10.809,3.471
89.800828,-0.471,-10.425,3.778
89.810385,-0.431,-10.07,3.801
89.819942,-0.314,-9.761,3.855
89.829499,-0.196,-9.484,3.864
89.839056,-0.157,-9.316,3.814
89.848613,-0.157,-9.309,3.776
89.85817,-0.196,-9.296,3.698
89.867727,-0.157,-9.262,3.505
89.877284,-0.157,-9.182,3.28
89.886841,-0.118,-9.05,2.985
89.896398,-0.078,-8.803,2.71
89.905944,-0.039,-8.453,2.533
89.91549,0.039,-8.103,2.355
89.925036,0.157,-7.676,2.192
89.934582,0.353,-7.217,2.073
89.944128,0.549,-6.758,1.955
89.953674,0.549,-6.28,1.96
89.96322,0.51,-5.965,1.975
89.972766,0.431,-5.778,2.048
89.982312,0.353,-5.837,2.157
89.991858,0.275,-6.258,2.282
90.001404,0.157,-6.819,2.303
90.01095,0,-7.503,2.342
90.020496,-0.196,-8.201,2.458
90.030042,-0.314,-8.705,2.608
90.039613,-0.314,-8.95,2.644
90.049184,-0.235,-8.848,2.742
90.058755,-0.157,-8.707,2.846
90.068326,-0.118,-8.475,2.887
90.077897,-0.118,-8.257,3.005
90.087468,-0.196,-8.148,3.064
90.097039,-0.314,-8.246,3.167
90.10661,-0.431,-8.466,3.287
90.116181,-0.51,-8.68,3.369
90.125752,-0.51,-8.925,3.405
90.135323,-0.51,-9.112,3.333
90.144894,-0.392,-9.137,3.248
90.154465,-0.275,-9.18,3.042
90.16406,-0.275,-9.655,2.799
90.173655,-0.353,-10.527,3.003
90.18325,-0.431,-11.127,3.694
90.192845,-0.275,-11.193,3.842
90.20244,0.039,-11.229,3.596
90.212035,0.039,-11.957,3.428
90.22163,0.196,-12.89,3.981
90.231225,0.706,-13.424,4.524
90.24082,1.02,-13.295,4.467
90.250415,1.02,-12.77,4.201
90.26001,1.216,-12.304,4.044
90.269605,1.334,-12.175,3.987
90.2792,1.177,-12.111,4.078
90.288795,1.098,-11.95,4.067
90.298421,0.902,-11.756,4.101
90.308047,0.706,-11.597,4.328
90.317673,0.549,-11.354,4.53
90.327299,0.431,-11.072,4.739
90.336925,0.314,-10.932,4.844
90.346551,0.235,-10.945,4.921
90.356177,0.235,-11.054,4.862
90.365803,0.275,-11.143,4.687
90.375429,0.235,-11.102,4.455
90.385055,0.196,-11.016,4.192
90.394681,0.078,-10.729,3.924
90.404307,0.078,-10.211,3.696
90.413933,0.118,-9.564,3.412
90.423559,0.118,-8.807,3.187
90.433242,0.118,-8.064,3.039
90.442925,0.157,-7.373,2.962
90.452608,0.235,-6.798,2.864
90.462291,0.235,-6.592,2.821
90.471974,0.196,-6.637,2.853
90.481657,0.157,-6.883,2.889
90.49134,0.118,-7.167,2.919
90.501023,0.078,-7.405,2.916
90.510706,0.118,-7.644,2.914
90.520389,0.118,-7.882,2.912
90.530072,0.196,-8.075,2.878
90.539755,0.235,-8.16,2.903
90.549438,0.314,-8.3,2.798
90.55916,0.392,-8.462,2.81
90.568882,0.51,-8.648,2.737
90.578604,0.549,-8.757,2.678
90.588326,0.588,-8.866,2.619
90.598048,0.628,-8.891,2.535
90.60777,0.628,-8.962,2.483
90.617492,0.667,-8.948,2.405
90.627214,0.667,-8.889,2.296
90.636936,0.667,-8.798,2.233
90.646658,0.667,-8.714,2.208
90.65638,0.667,-8.662,2.137
90.666102,0.628,-8.61,2.067
90.675824,0.628,-8.641,2.021
90.685546,0.51,-8.589,1.951
90.695299,0.431,-8.46,1.894
90.705052,0.314,-8.33,1.837
90.714805,0.157,-8.271,1.728
90.724558,0.039,-8.271,1.728
90.734311,0,-8.18,1.664
90.744064,0,-8.11,1.717
90.753817,0,-8.092,1.839
90.76357,0,-8.073,1.962
90.773323,-0.196,-8.146,2.148
90.783076,-0.275,-8.462,2.133
90.792829,-0.471,-9.398,2.246
90.802582,-0.667,-10.564,2.758
90.812335,-0.745,-11.884,3.242
90.822088,-0.667,-13.118,3.463
90.831854,-0.51,-13.906,3.642
90.84162,-0.51,-13.874,3.688
90.851386,-0.51,-13.299,3.59
90.861152,-0.588,-12.411,3.747
90.870918,-0.549,-11.463,3.794
90.880684,-0.431,-10.702,3.769
90.89045,-0.275,-10.232,3.812
90.900216,-0.196,-10.123,3.871
90.909982,-0.196,-10.389,4.023
90.919748,-0.235,-10.693,4.169
90.929514,-0.353,-10.952,4.283
90.93928,-0.431,-11.12,4.333
90.949046,-0.431,-11.429,4.278
90.958812,-0.471,-11.738,4.224
90.968614,-0.392,-11.886,4.158
90.978416,-0.353,-11.704,4.03
90.988218,-0.353,-11.238,3.874
90.99802,-0.275,-10.741,3.762
91.007822,-0.157,-10.198,3.619
91.017624,0.039,-9.571,3.451
91.027426,0.196,-8.912,3.328
91.037228,0.235,-8.259,3.244
91.04703,0.157,-7.678,3.107
91.056832,0.118,-7.296,2.976
91.066634,0.039,-7.16,2.88
91.076436,-0.039,-7.171,2.719
91.086238,-0.118,-7.26,2.544
91.096057,-0.157,-7.33,2.492
91.105876,-0.235,-7.498,2.542
91.115695,-0.157,-7.628,2.598
91.125514,-0.157,-7.673,2.63
91.135333,-0.078,-7.662,2.791
91.145152,-0.118,-7.566,2.928
91.154971,-0.118,-7.471,3.064
91.16479,-0.118,-7.376,3.2
91.174609,-0.118,-7.396,3.316
91.184428,-0.078,-7.557,3.328
91.194247,-0.118,-7.828,3.28
91.204066,-0.118,-8.169,3.18
91.213885,-0.118,-8.457,3.01
91.223704,-0.118,-8.753,2.878
91.233517,-0.078,-9.043,2.946
91.24333,-0.039,-9.128,2.971
91.253143,0.039,-8.98,3.037
91.262956,0.118,-8.832,3.103
91.272769,0.039,-8.923,3.167
91.282582,0.039,-9.137,3.248
91.292395,0,-9.389,3.323
91.302208,-0.078,-9.343,3.292
91.312021,-0.039,-9.007,3.192
91.321834,0.039,-8.605,2.944
91.331647,0.078,-8.525,2.719
91.34146,0.039,-9.091,2.539
91.351273,-0.157,-9.909,3.112
91.361086,-0.275,-10.425,3.778
91.370906,-0.353,-10.693,4.169
91.380726,-0.549,-10.825,4.464
91.390546,-0.471,-11.204,4.358
91.400366,-0.157,-12.056,4.446
91.410186,0.078,-12.82,4.71
91.420006,0.314,-13.258,4.712
91.429826,0.628,-13.27,4.551
91.439646,0.902,-13.127,4.417
91.449466,1.02,-13.036,4.353
91.459286,0.981,-12.804,4.394
91.469106,0.863,-12.397,4.346
91.478926,0.667,-11.9,4.235
91.488746,0.51,-11.461,4.233
91.498542,0.353,-11.132,4.171
91.508338,0.196,-10.879,4.096
91.518134,0.078,-10.691,3.93
91.52793,-0.078,-10.586,3.789
91.537726,-0.118,-10.489,3.687
91.547522,-0.078,-10.275,3.605
91.557318,-0.078,-9.893,3.474
91.567114,-0.039,-9.48,3.387
91.57691,-0.039,-9.021,3.269
91.586706,-0.039,-8.691,3.207
91.596502,-0.039,-8.484,3.164
91.606298,0.039,-8.471,3.087
91.616094,0.078,-8.559,2.912
91.62589,0.078,-8.584,2.828
91.635678,0.118,-8.519,2.68
91.645466,0.078,-8.453,2.533
91.655254,0.039,-8.387,2.385
91.665042,0.039,-8.226,2.373
91.67483,0.039,-8.001,2.453
91.684618,0.039,-7.698,2.546
91.694406,0.078,-7.357,2.646
91.704194,0.118,-7.217,2.751
91.713982,0.235,-7.353,2.846
91.72377,0.275,-7.63,2.837
91.733558,0.235,-7.978,2.776
91.743346,0.196,-8.332,2.753
91.753134,0.196,-8.666,2.614
91.762885,0.196,-9.014,2.553
91.772636,0.196,-9.155,2.449
91.782387,0.275,-9.064,2.385
91.792138,0.392,-8.825,2.387
91.801889,0.471,-8.503,2.364
91.81164,0.549,-8.278,2.444
91.821391,0.628,-8.13,2.51
91.831142,0.51,-8.201,2.458
91.840893,0.392,-8.394,2.423
91.850644,0.314,-8.51,2.403
91.860395,0.235,-8.45,2.294
91.870146,0.157,-8.282,2.244
91.879897,0.118,-8.128,2.271
91.889648,0.039,-7.973,2.298
91.89938,-0.078,-8.012,2.292
91.909112,-0.235,-8.391,2.185
91.918844,-0.431,-8.985,2.16
91.928576,-0.706,-9.95,1.99
91.938308,-0.941,-10.959,2.29
91.94804,-0.981,-11.725,2.792
91.957772,-0.824,-12.268,2.935
91.967504,-0.588,-12.604,3.035
91.977236,-0.471,-12.811,3.079
91.986968,-0.549,-12.888,3.065
91.9967,-0.706,-12.695,3.099
92.006432,-0.863,-12.179,3.11
92.016164,-0.902,-11.779,3.101
92.025857,-0.824,-11.663,3.122
92.03555,-0.863,-11.716,3.192
92.045243,-0.863,-11.872,3.403
92.054936,-0.941,-11.872,3.403
92.064629,-0.981,-11.827,3.372
92.074322,-1.059,-11.775,3.301
92.084015,-1.098,-11.684,3.237
92.093708,-1.138,-11.541,3.103
92.103401,-1.138,-11.411,3.047
92.113094,-1.098,-11.236,2.958
92.122787,-1.02,-10.991,2.921
92.13248,-1.02,-10.636,2.944
92.142173,-1.02,-10.205,2.98
92.151866,-0.902,-9.805,2.971
92.161517,-0.745,-9.437,2.917
92.171168,-0.667,-9.321,2.937
92.180819,-0.588,-9.282,2.944
92.19047,-0.549,-9.38,3.046
92.200121,-0.51,-9.43,2.878
92.209772,-0.471,-9.448,2.755
92.219423,-0.392,-9.343,2.614
92.229074,-0.353,-9.162,2.487
92.238725,-0.275,-8.909,2.412
92.248376,-0.235,-8.696,2.33
92.258027,-0.157,-8.535,2.319
92.267678,-0.118,-8.412,2.301
92.277329,-0.118,-8.328,2.276
92.28698,-0.078,-8.244,2.251
92.296621,-0.078,-8.191,2.18
92.306262,-0.039,-8.132,2.071
92.315903,-0.039,-8.094,2.078
92.325544,-0.039,-8.048,2.046
92.335185,0,-8.03,2.169
92.344826,0.039,-8.16,2.226
92.354467,0,-8.373,2.308
92.364108,0,-8.587,2.389
92.373749,-0.039,-8.748,2.401
92.38339,-0.039,-8.832,2.426
92.393031,-0.118,-8.891,2.535
92.402672,-0.078,-8.871,2.419
92.412313,-0.078,-8.735,2.324
92.421931,-0.039,-8.496,2.326
92.431549,-0.039,-8.257,2.328
92.441167,0.039,-8.051,2.285
92.450785,0.039,-8.012,2.292
92.460403,-0.039,-8.005,2.253
92.470021,-0.078,-7.96,2.221
92.479639,-0.118,-7.907,2.151
92.489257,-0.118,-7.894,2.073
92.498875,-0.118,-7.912,1.951
92.508493,-0.118,-7.919,1.989
92.518111,-0.078,-7.932,2.067
92.527729,0,-8.107,2.155
92.537347,0.039,-8.573,2.312
92.546965,0.039,-9.437,2.24
92.556564,-0.118,-10.702,2.415
92.566163,-0.235,-11.586,3.135
92.575762,0,-11.891,3.281
92.585361,0.157,-11.657,3.083
92.59496,0.196,-11.995,2.744
92.604559,0.275,-13.043,3.038
92.614158,0.667,-13.554,3.903
92.623757,1.216,-13.281,3.713
92.633356,1.177,-12.697,3.338
92.642955,1.177,-12.213,3.303
92.652554,1.373,-12.272,3.412
92.662153,1.216,-12.552,3.642
92.671752,1.02,-12.74,3.808
92.681351,0.824,-12.709,3.853
92.690928,0.549,-12.361,3.915
92.700505,0.314,-12.052,3.969
92.710082,0.039,-11.736,3.985
92.719659,-0.078,-11.607,3.928
92.729236,-0.118,-11.638,3.883
92.738813,-0.157,-11.547,3.819
92.74839,-0.275,-11.313,3.621
92.757967,-0.353,-10.879,3.419
92.767544,-0.392,-10.323,3.199
92.777121,-0.392,-9.791,2.894
92.786698,-0.431,-9.266,2.628
92.796275,-0.353,-8.864,2.38
92.805852,-0.314,-8.437,2.217
92.815429,-0.196,-7.978,2.098
92.825015,-0.118,-7.48,1.987
92.834601,-0.118,-7.151,1.926
92.844187,-0.078,-6.951,1.921
92.853773,-0.039,-6.996,1.953
92.863359,0,-7.049,2.023
92.872945,0.078,-7.101,2.094
92.882531,0.118,-7.146,2.126
92.892117,0.118,-7.269,2.144
92.901703,0.118,-7.462,2.11
92.911289,0.118,-7.637,2.198
92.920875,0.078,-7.805,2.248
92.930461,0.039,-7.973,2.298
92.940047,0.039,-8.103,2.355
92.949651,0.118,-8.257,2.328
92.959255,0.157,-8.464,2.371
92.968859,0.118,-8.65,2.299
92.978463,0.157,-8.76,2.239
92.988067,0.118,-8.785,2.155
92.997671,0.157,-8.648,2.06
93.007275,0.157,-8.403,2.024
93.016879,0.196,-8.164,2.026
93.026483,0.235,-7.894,2.073
93.036087,0.196,-7.792,2.171
93.045691,0.196,-7.928,2.267
93.055295,0.157,-8.187,2.38
93.064899,0.078,-8.369,2.508
93.074503,-0.078,-8.575,2.551
93.084114,-0.235,-8.575,2.551
93.093725,-0.314,-8.414,2.539
93.103336,-0.353,-8.355,2.43
93.112947,-0.51,-8.51,2.403
93.122558,-0.588,-9.1,2.14
93.132169,-0.706,-10.159,2.271
93.14178,-0.863,-11.286,2.79
93.151391,-0.706,-12.204,3.026
93.161002,-0.353,-12.895,3.104
93.170613,-0.196,-13.218,3.126
93.180224,-0.196,-13.372,3.099
93.189835,-0.275,-13.179,3.133
93.199446,-0.353,-12.681,3.022
93.209057,-0.588,-12.513,2.972
93.218707,-0.706,-12.579,3.119
93.228357,-0.667,-12.606,3.274
93.238007,-0.628,-12.388,3.392
93.247657,-0.588,-12.111,3.401
93.257307,-0.706,-11.995,3.422
93.266957,-0.824,-12.041,3.453
93.276607,-0.941,-12.234,3.419
93.286257,-0.941,-12.388,3.392
93.295907,-0.941,-12.272,3.412
93.305557,-0.902,-11.827,3.372
93.315207,-0.863,-11.329,3.26
93.324857,-0.824,-10.891,3.258
93.334507,-0.785,-10.516,3.165
93.344201,-0.667,-10.155,3.149
93.353895,-0.588,-9.727,2.985
93.363589,-0.471,-9.3,2.821
93.373283,-0.314,-8.95,2.644
93.382977,-0.118,-8.646,2.499
93.392671,-0.039,-8.303,2.36
93.402365,0.039,-8.051,2.285
93.412059,0.118,-7.844,2.242
93.421753,0.157,-7.63,2.16
93.431447,0.118,-7.508,2.142
93.441141,0.078,-7.455,2.071
93.450835,0.039,-7.378,2.085
93.460529,0.039,-7.385,2.123
93.470223,0,-7.36,2.207
93.479938,0.039,-7.276,2.182
93.489653,0,-7.283,2.221
93.499368,0.039,-7.276,2.182
93.509083,0,-7.419,2.317
93.518798,0,-7.555,2.412
93.528513,-0.078,-7.576,2.528
93.538228,-0.118,-7.467,2.587
93.547943,-0.078,-7.389,2.601
93.557658,-0.039,-7.467,2.587
93.567373,0,-7.846,2.48
93.577088,0.039,-8.516,2.442
93.586803,0.039,-9.259,2.589
93.596518,0.118,-9.884,2.519
93.606233,0.275,-10.296,2.367
93.615949,0.431,-10.414,2.585
93.625665,0.628,-10.518,2.726
93.635381,0.863,-10.707,2.892
93.645097,1.216,-11.109,3.14
93.654813,1.451,-11.402,3.446
93.664529,1.491,-11.488,3.71
93.674245,1.491,-11.682,3.676
93.683961,1.177,-12.486,3.494
93.693677,0.902,-13.109,3.863
93.703393,0.824,-13.245,3.958
93.713109,0.667,-13.215,3.565
93.722825,0.549,-13.709,3.199
93.732541,0.471,-14.445,3.308
93.742257,0.588,-14.595,3.481
93.752008,0.824,-14.561,3.288
93.761759,1.098,-13.924,2.842
93.77151,1.491,-13.506,2.279
93.781261,1.726,-13.277,1.881
93.791012,1.726,-13.068,1.599
93.800763,1.608,-12.568,1.249
93.810514,1.334,-11.907,0.888
93.820265,0.981,-11.182,0.617
93.830016,0.745,-10.425,0.392
93.839767,0.51,-9.798,0.224
93.849518,0.353,-9.357,-0.017
93.859269,0.235,-9.208,-0.19
93.86902,0.118,-9.18,-0.344
93.878791,0,-9.237,-0.474
93.888562,-0.157,-9.198,-0.467
93.898333,-0.314,-8.953,-0.503
93.908104,-0.392,-8.63,-0.526
93.917875,-0.471,-8.294,-0.626
93.927646,-0.392,-8.292,-0.865
93.937417,-0.471,-8.369,-0.878
93.947188,-0.549,-8.337,-0.833
93.956959,-0.588,-8.183,-0.806
93.96673,-0.667,-7.906,-0.796
93.976501,-0.745,-7.692,-0.878
93.986272,-0.706,-7.592,-1.219
93.996043,-0.706,-7.733,-1.324
94.005814,-0.628,-7.842,-1.383
94.015582,-0.588,-7.633,-0.987
94.02535,-0.471,-7.362,-0.94
94.035118,-0.51,-7.272,-1.003
94.044886,-0.588,-7.526,-1.367
94.054654,-0.667,-8.081,-1.385
94.064422,-0.706,-8.558,-1.389
94.07419,-0.628,-8.79,-1.43
94.083958,-0.549,-8.983,-1.464
94.093726,-0.51,-9.124,-1.569
94.103494,-0.588,-9.29,-1.757
94.113262,-0.785,-9.476,-1.83
94.12303,-0.981,-9.296,-1.719
94.132798,-1.059,-8.787,-1.669
94.142566,-0.941,-8.419,-1.724
94.152327,-0.745,-8.29,-1.78
94.162088,-0.628,-8.262,-1.935
94.171849,-0.588,-8.392,-1.878
94.18161,-0.549,-8.567,-1.789
94.191371,-0.51,-8.651,-1.764
94.201132,-0.353,-8.567,-1.789
94.210893,-0.157,-8.547,-1.905
94.220654,0,-8.508,-1.898
94.230415,0.157,-8.392,-1.878
94.240176,0.235,-8.237,-1.851
94.249937,0.157,-8.097,-1.746
94.259698,0.078,-8.044,-1.817
94.269459,0,-8.378,-1.955
94.27922,0.118,-9.437,-2.501
94.288958,0.078,-10.862,-2.553
94.298696,0.078,-11.891,-2.137
94.308434,0.235,-12.255,-1.882
94.318172,0.51,-12.294,-1.889
94.32791,0.667,-12.421,-2.071
94.337648,0.628,-12.634,-1.989
94.347386,0.549,-12.634,-1.989
94.357124,0.392,-12.332,-1.896
94.366862,0.157,-11.853,-2.13
94.3766,-0.118,-11.83,-2.484
94.386338,-0.353,-12.157,-2.661
94.396076,-0.51,-12.441,-2.632
94.405814,-0.392,-12.155,-2.223
94.415552,-0.196,-11.46,-2.1
94.42529,-0.157,-10.957,-2.012
94.435028,-0.118,-10.721,-1.771
94.444766,-0.157,-10.755,-1.578
94.454504,-0.157,-10.853,-1.476
94.464242,-0.157,-10.912,-1.366
94.47398,-0.235,-11.08,-1.316
94.483718,-0.314,-11.101,-1.201
94.493456,-0.392,-10.889,-1.044
94.503194,-0.431,-10.555,-0.905
94.512932,-0.431,-10.162,-0.876
94.52267,-0.471,-9.93,-0.835
94.532408,-0.471,-9.923,-0.873
94.542146,-0.549,-9.987,-0.964
94.551876,-0.549,-9.935,-1.035
94.561606,-0.667,-9.703,-0.994
94.571336,-0.824,-9.342,-1.01
94.581066,-0.902,-8.987,-0.987
94.590796,-0.902,-8.858,-1.044
94.600526,-0.824,-8.819,-1.037
94.610256,-0.785,-8.819,-1.037
94.619986,-0.745,-8.819,-1.037
94.629716,-0.706,-8.942,-1.019
94.639446,-0.706,-9.251,-1.074
94.649176,-0.745,-9.426,-0.985
94.658906,-0.745,-9.349,-0.971
94.668636,-0.785,-9.328,-1.087
94.678366,-0.824,-9.405,-1.101
94.688076,-0.902,-9.399,-1.139
94.697786,-0.863,-9.283,-1.119
94.707496,-0.785,-9.276,-1.158
94.717206,-0.706,-9.43,-1.185
94.726916,-0.667,-9.592,-1.173
94.736626,-0.628,-9.514,-1.16
94.746336,-0.51,-9.476,-1.153
94.756046,-0.392,-9.43,-1.185
94.765756,-0.275,-9.296,-1.042
94.775466,-0.157,-8.942,-1.019
94.785176,-0.078,-8.787,-0.992
94.794886,-0.039,-8.717,-0.94
94.804596,-0.039,-8.955,-0.942
94.814306,-0.078,-9.096,-1.046
94.824023,-0.118,-9.219,-1.028
94.83374,-0.196,-9.285,-0.88
94.843457,-0.275,-9.087,-0.646
94.853174,-0.235,-8.901,-0.574
94.862891,-0.275,-8.928,-0.419
94.872608,-0.196,-8.833,-0.283
94.882325,-0.157,-8.942,-0.342
94.892042,-0.118,-9.203,-0.667
94.901759,-0.196,-9.885,-0.867
94.911476,-0.235,-10.844,-1.076
94.921193,-0.275,-11.739,-1.194
94.93091,-0.353,-12.373,-0.987
94.940627,-0.431,-12.577,-0.505
94.950345,-0.431,-12.277,-0.173
94.960063,-0.471,-11.859,-0.06
94.969781,-0.471,-11.846,-0.137
94.979499,-0.392,-12.182,-0.037
94.989217,-0.275,-12.441,0.077
94.998935,-0.157,-12.63,0.243
95.008653,-0.078,-12.72,0.306
95.018371,-0.039,-12.727,0.345
95.028089,0,-12.682,0.313
95.037807,-0.039,-12.482,0.309
95.047525,-0.078,-12.166,0.324
95.057243,-0.078,-11.818,0.386
95.066961,-0.157,-11.387,0.422
95.076679,-0.235,-11.039,0.483
95.086382,-0.314,-10.769,0.531
95.096085,-0.392,-10.607,0.52
95.105788,-0.431,-10.421,0.592
95.115491,-0.471,-10.164,0.717
95.125194,-0.588,-9.887,0.726
95.134897,-0.745,-9.7,0.799
95.1446,-0.824,-9.644,0.928
95.154303,-0.902,-9.703,1.038
95.164006,-0.981,-9.839,1.133
95.173709,-1.02,-10,1.144
95.183412,-1.02,-10.091,1.208
95.193115,-0.981,-10.098,1.247
95.202818,-0.941,-10.091,1.208
95.212521,-0.902,-10,1.144
95.222198,-0.824,-9.807,1.178
95.231875,-0.745,-9.664,1.044
95.241552,-0.667,-9.405,0.931
95.251229,-0.549,-9.23,0.842
95.260906,-0.392,-9.082,0.908
95.270583,-0.314,-8.921,0.897
95.28026,-0.275,-8.928,0.935
95.289937,-0.314,-8.967,0.928
95.299614,-0.353,-9.128,0.94
95.309291,-0.353,-9.257,0.997
95.318968,-0.353,-9.341,1.022
95.328645,-0.353,-9.405,0.931
95.338322,-0.353,-9.437,0.885
95.347999,-0.353,-9.346,0.822
95.357652,-0.235,-9.203,0.688
95.367305,-0.196,-9.228,0.603
95.376958,-0.118,-9.26,0.558
95.386611,-0.118,-9.278,0.435
95.396264,-0.078,-9.303,0.351
95.405917,-0.078,-9.16,0.217
95.41557,-0.078,-9.01,0.044
95.425223,-0.078,-8.964,0.013
95.434876,-0.078,-8.887,0.026
95.444529,-0.039,-8.817,0.078
95.454182,0,-8.617,0.074
95.463835,-0.039,-8.476,0.178
95.473488,-0.157,-8.56,0.203
95.483141,-0.314,-9.108,0.147
95.492804,-0.392,-9.687,0.045
95.502467,-0.392,-10.055,0.099
95.51213,-0.51,-10.248,0.065
95.521793,-0.588,-10.023,0.145
95.531456,-0.588,-9.669,0.167
95.541119,-0.549,-9.192,0.172
95.550782,-0.431,-8.908,0.142
95.560445,-0.314,-8.733,0.053
95.570108,-0.196,-8.533,0.049
95.579771,-0.118,-8.339,0.083
95.589434,-0.118,-8.178,0.072
95.599097,-0.078,-8.055,0.053
95.60876,-0.078,-8.028,-0.101
95.618414,-0.157,-8.362,-0.24
95.628068,-0.235,-8.992,-0.51
95.637722,-0.353,-9.944,-0.758
95.647376,-0.51,-10.894,-0.567
95.65703,-0.667,-11.65,-0.342
95.666684,-0.706,-12.191,-0.437
95.676338,-0.628,-12.841,-0.591
95.685992,-0.706,-13.073,-0.632
95.695646,-0.824,-12.807,-0.784
95.7053,-0.941,-12.309,-0.896
95.714954,-1.098,-11.819,-0.969
95.724608,-1.138,-11.514,-1.114
95.734262,-1.02,-11.487,-1.269
95.743916,-0.863,-11.687,-1.264
95.753558,-0.785,-11.662,-1.18
95.7632,-0.785,-11.366,-1.048
95.772842,-0.863,-11.185,-1.176
95.782484,-0.981,-11.371,-1.248
95.792126,-1.098,-11.784,-1.162
95.801768,-1.138,-11.791,-1.123
95.81141,-1.059,-11.553,-1.121
95.821052,-0.981,-11.23,-1.144
95.830694,-0.902,-10.894,-1.244
95.840336,-0.824,-10.712,-1.371
95.849978,-0.785,-10.589,-1.389
95.85962,-0.745,-10.362,-1.548
95.869262,-0.706,-9.969,-1.519
95.878904,-0.785,-9.608,-1.535
95.888537,-0.745,-9.355,-1.61
95.89817,-0.745,-9.117,-1.608
95.907803,-0.745,-8.628,-1.442
95.917436,-0.785,-8.056,-1.301
95.927069,-0.745,-7.624,-1.265
95.936702,-0.667,-7.358,-1.417
95.946335,-0.667,-7.331,-1.571
95.955968,-0.549,-7.265,-1.719
95.965601,-0.471,-7.174,-1.783
95.975234,-0.314,-7.115,-1.892
95.984867,-0.235,-7.115,-1.892
95.9945,-0.235,-7.238,-1.874
96.004133,-0.275,-7.399,-1.862
96.013766,-0.275,-7.458,-1.753
96.023414,-0.157,-7.465,-1.715
96.033062,-0.118,-7.574,-1.774
96.04271,-0.118,-7.626,-1.703
96.052358,-0.235,-7.858,-1.744
96.062006,-0.431,-8.356,-1.633
96.071654,-0.667,-8.892,-1.528
96.081302,-0.902,-9.26,-1.473
96.09095,-1.138,-9.41,-1.301
96.100598,-1.334,-9.36,-1.133
96.110246,-1.373,-9.296,-1.042
96.119894,-1.373,-9.635,-1.38
96.129542,-1.294,-10.676,-1.803
96.13919,-1.294,-12.346,-2.496
96.14883,-1.451,-13.705,-2.018
96.15847,-1.491,-13.634,-1.289
96.16811,-1.451,-13.846,-2.123
96.17775,-1.294,-14.386,-2.218
96.18739,-1.098,-14.066,-1.325
96.19703,-0.628,-13.293,-1.189
96.20667,-0.078,-12.369,-1.464
96.21631,0.392,-11.991,-1.796
96.22595,0.588,-12.398,-1.748
96.23559,0.745,-12.648,-1.234
96.24523,0.706,-12.543,-0.698
96.25487,0.471,-12.218,-0.282
96.26451,0.118,-12.171,0.124
96.27415,-0.196,-12.259,0.627
96.28381,-0.471,-12.38,1.083
96.29347,-0.549,-12.368,1.245
96.30313,-0.51,-12.161,1.201
96.31279,-0.392,-12,1.19
96.32245,-0.314,-11.839,1.179
96.33211,-0.235,-11.548,1.111
96.34177,-0.235,-11.218,1.049
96.35143,-0.314,-10.78,1.047
96.36109,-0.314,-10.232,1.104
96.37075,-0.392,-9.671,1.083
96.38041,-0.392,-9.212,0.965
96.39007,-0.392,-8.942,1.012
96.39973,-0.353,-8.871,1.065
96.409385,-0.392,-8.846,1.149
96.41904,-0.392,-8.86,1.226
96.428695,-0.353,-8.848,1.387
96.43835,-0.314,-8.848,1.387
96.448005,-0.157,-8.803,1.356
96.45766,-0.078,-8.764,1.362
96.467315,-0.078,-8.757,1.324
96.47697,-0.039,-8.744,1.246
96.486625,-0.039,-8.737,1.208
96.49628,-0.078,-8.769,1.162
96.505935,-0.078,-9.007,1.16
96.51559,-0.078,-9.221,1.242
96.525245,-0.118,-9.382,1.253
96.5349,-0.118,-9.466,1.278
96.544572,-0.118,-9.519,1.349
96.554244,-0.078,-9.487,1.394
96.563916,-0.039,-9.546,1.503
96.573588,0.078,-9.644,1.606
96.58326,0.196,-9.773,1.662
96.592932,0.235,-10.018,1.699
96.602604,0.196,-10.334,1.683
96.612276,0.118,-10.541,1.726
96.621948,0.039,-10.991,1.567
96.63162,-0.078,-11.784,1.547
96.641292,-0.314,-12.134,2.401
96.650964,-0.196,-11.511,2.71
96.660636,0.118,-11.023,2.199
96.670307,0.118,-11.309,1.79
96.679978,-0.196,-12.434,2.07
96.689649,-0.235,-13.193,2.533
96.69932,0,-12.916,2.542
96.708991,0.196,-12.05,2.376
96.718662,0.235,-11.068,2.231
96.728333,0.235,-10.23,2.219
96.738004,0.235,-9.559,2.258
96.747675,0.118,-9.025,2.392
96.757346,0.078,-8.628,2.621
96.767017,0.078,-8.448,2.733
96.776688,0,-8.578,2.789
96.786359,-0.078,-8.946,2.844
96.79603,-0.275,-9.341,3.053
96.805727,-0.353,-9.646,3.199
96.815424,-0.51,-9.846,3.203
96.825121,-0.51,-9.93,3.228
96.834818,-0.51,-10,3.176
96.844515,-0.431,-10.052,3.246
96.854212,-0.353,-10.136,3.271
96.863909,-0.235,-10.077,3.162
96.873606,-0.157,-9.909,3.112
96.883303,-0.078,-9.78,3.055
96.893,-0.039,-9.598,2.928
96.902697,-0.118,-9.409,2.762
96.912394,-0.118,-9.337,2.576
96.922091,-0.275,-9.239,2.474
96.931792,-0.275,-9.148,2.41
96.941493,-0.314,-9.057,2.346
96.951194,-0.275,-9.005,2.276
96.960895,-0.235,-8.96,2.244
96.970596,-0.275,-9.075,2.224
96.980297,-0.275,-9.205,2.28
96.989998,-0.196,-9.296,2.344
96.999699,-0.157,-9.303,2.383
97.0094,-0.078,-9.393,2.446
97.019101,-0.078,-9.478,2.471
97.028802,-0.039,-9.548,2.419
97.038503,-0.039,-9.632,2.444
97.048204,0,-9.716,2.469
97.057905,0.039,-9.639,2.483
97.067613,0,-9.548,2.419
97.077321,0,-9.464,2.394
97.087029,0,-9.393,2.446
97.096737,0,-9.355,2.453
97.106445,-0.039,-9.446,2.517
97.116153,-0.039,-9.537,2.58
97.125861,-0.039,-9.621,2.605
97.135569,-0.078,-9.621,2.605
97.145277,-0.118,-9.659,2.599
97.154985,-0.157,-9.705,2.63
97.164693,-0.196,-9.673,2.676
97.174401,-0.235,-9.718,2.708
97.184109,-0.353,-10.027,2.653
97.193817,-0.392,-10.571,2.796
97.20356,-0.314,-10.741,3.085
97.213303,-0.196,-10.4,3.185
97.223046,-0.078,-10.293,2.805
97.232789,-0.039,-10.8,2.517
97.242532,-0.118,-11.627,2.69
97.252275,-0.118,-11.818,3.094
97.262018,-0.039,-11.443,3.001
97.271761,-0.039,-10.9,2.858
97.281504,0.078,-10.577,2.835
97.291247,0.196,-10.661,2.86
97.30099,0.314,-10.661,2.86
97.310733,0.471,-10.416,2.824
97.320476,0.549,-10.023,2.853
97.330213,0.51,-9.603,2.728
97.33995,0.588,-9.371,2.769
97.349687,0.588,-9.237,2.912
97.359424,0.588,-9.289,2.983
97.369161,0.549,-9.38,3.046
97.378898,0.51,-9.471,3.11
97.388635,0.471,-9.548,3.096
97.398372,0.353,-9.587,3.089
97.408109,0.353,-9.548,3.096
97.417846,0.314,-9.38,3.046
97.427583,0.157,-9.25,2.989
97.43732,0.078,-9.198,2.919
97.447057,0.078,-9.121,2.933
97.456794,0,-9.023,2.83
97.466544,-0.078,-8.932,2.767
97.476294,-0.157,-8.855,2.78
97.486044,-0.196,-8.725,2.723
97.495794,-0.196,-8.609,2.744
97.505544,-0.196,-8.609,2.744
97.515294,-0.196,-8.687,2.73
97.525044,-0.196,-8.764,2.717
97.534794,-0.157,-8.88,2.696
97.544544,-0.157,-9.034,2.669
97.554294,-0.118,-9.189,2.642
97.564044,-0.118,-9.343,2.614
97.573794,-0.157,-9.343,2.614
97.583544,-0.157,-9.35,2.653
97.593324,-0.196,-9.28,2.705
97.603104,-0.235,-9.28,2.705
97.612884,-0.275,-9.28,2.705
97.622664,-0.235,-9.371,2.769
97.632444,-0.275,-9.455,2.794
97.642224,-0.275,-9.532,2.78
97.652004,-0.275,-9.493,2.787
97.661784,-0.314,-9.532,2.78
97.671564,-0.353,-9.564,2.735
97.681344,-0.353,-9.628,2.644
97.691124,-0.431,-9.705,2.63
97.700904,-0.51,-9.737,2.585
97.710684,-0.549,-9.659,2.599
97.720463,-0.588,-9.678,2.476
97.730242,-0.706,-10.166,2.31
97.740021,-0.785,-10.986,2.444
97.7498,-0.981,-11.661,2.883
97.759579,-0.981,-12.088,3.047
97.769358,-0.902,-11.979,3.106
97.779137,-0.824,-11.432,3.162
97.788916,-0.785,-10.934,3.051
97.798695,-0.863,-10.584,2.874
97.808474,-0.902,-10.3,2.844
97.818253,-0.902,-10.009,2.776
97.828032,-0.863,-9.687,2.753
97.837811,-0.785,-9.448,2.755
97.84759,-0.706,-9.178,2.803
97.857384,-0.588,-9.125,2.733
97.867178,-0.51,-9.098,2.578
97.876972,-0.549,-9.234,2.674
97.886766,-0.628,-9.518,2.703
97.89656,-0.706,-9.725,2.746
97.906354,-0.745,-9.809,2.771
97.916148,-0.745,-9.771,2.778
97.925942,-0.667,-9.732,2.785
97.935736,-0.667,-9.609,2.767
97.94553,-0.706,-9.487,2.749
97.955324,-0.628,-9.364,2.73
97.965118,-0.549,-9.35,2.653
97.974912,-0.588,-9.375,2.569
97.98468,-0.549,-9.355,2.453
97.994448,-0.549,-9.387,2.408
98.004216,-0.51,-9.439,2.478
98.013984,-0.51,-9.419,2.362
98.023752,-0.431,-9.398,2.246
98.03352,-0.392,-9.346,2.176
98.043288,-0.392,-9.255,2.112
98.053056,-0.392,-9.184,2.165
98.062824,-0.353,-9.132,2.094
98.072592,-0.314,-9.255,2.112
98.08236,-0.235,-9.455,2.117
98.092128,-0.196,-9.623,2.167
98.101896,-0.196,-9.823,2.171
98.111664,-0.196,-9.978,2.144
98.121432,-0.235,-10.048,2.092
98.13119,-0.275,-10.118,2.04
98.140948,-0.275,-9.912,1.996
98.150706,-0.235,-9.687,2.076
98.160464,-0.196,-9.441,2.04
98.170222,-0.157,-9.371,2.092
98.17998,-0.118,-9.378,2.13
98.189738,-0.078,-9.314,2.221
98.199496,-0.039,-9.353,2.215
98.209254,-0.039,-9.469,2.194
98.219012,-0.118,-9.766,2.301
98.22877,-0.157,-10.127,2.317
98.238528,-0.118,-10.771,2.124
98.248286,-0.196,-11.759,2.308
98.25805,-0.314,-12.166,3.033
98.267814,-0.118,-11.638,3.206
98.277578,0.039,-10.895,3.058
98.287342,0.196,-10.552,2.919
98.297106,0.392,-10.745,2.885
98.30687,0.628,-11.016,2.837
98.316634,0.785,-10.918,2.735
98.326398,0.902,-10.518,2.726
98.336162,0.863,-9.989,2.66
98.345926,0.745,-9.666,2.637
98.35569,0.628,-9.48,2.71
98.365454,0.588,-9.441,2.717
98.375218,0.549,-9.487,2.749
98.384983,0.431,-9.564,2.735
98.394748,0.353,-9.616,2.805
98.404513,0.314,-9.616,2.805
98.414278,0.157,-9.578,2.812
98.424043,0.039,-9.616,2.805
98.433808,-0.078,-9.648,2.76
98.443573,-0.196,-9.648,2.76
98.453338,-0.314,-9.55,2.658
98.463103,-0.471,-9.537,2.58
98.472868,-0.588,-9.471,2.433
98.482633,-0.628,-9.425,2.401
98.492398,-0.706,-9.328,2.299
98.502163,-0.785,-9.139,2.133
98.511928,-0.785,-8.919,2.012
98.521667,-0.745,-8.705,1.93
98.531406,-0.667,-8.369,1.83
98.541145,-0.628,-8.194,1.742
98.550884,-0.392,-8.064,1.685
98.560623,-0.235,-8.148,1.71
98.570362,-0.118,-8.31,1.721
98.580101,-0.039,-8.51,1.726
98.58984,0.078,-8.632,1.744
98.599579,0.078,-8.685,1.815
98.609318,0.118,-8.807,1.833
98.619057,0.078,-8.923,1.812
98.628796,0.078,-9.039,1.792
98.638535,0.039,-9.278,1.79
98.648274,0,-9.439,1.801
98.658008,0,-9.639,1.806
98.667742,0.078,-9.748,1.747
98.677476,0.039,-9.846,1.849
98.68721,0.039,-9.975,1.906
98.696944,-0.039,-10.15,1.994
98.706678,-0.118,-10.248,2.097
98.716412,-0.235,-10.28,2.051
98.726146,-0.353,-10.448,2.101
98.73588,-0.471,-10.571,2.119
98.745614,-0.588,-10.661,2.183
98.755348,-0.628,-10.714,2.253
98.765082,-0.706,-10.823,2.194
98.774816,-0.745,-11.086,2.108
98.784521,-0.785,-11.641,2.09
98.794226,-0.902,-12.082,2.331
98.803931,-0.863,-11.911,2.719
98.813636,-0.706,-11.279,2.751
98.823341,-0.51,-10.716,2.492
98.833046,-0.588,-10.8,2.517
98.842751,-0.745,-11.086,2.785
98.852456,-0.588,-11.114,2.94
98.862161,-0.471,-10.932,2.812
98.871866,-0.353,-10.873,2.703
98.881571,-0.314,-10.891,2.581
98.891276,-0.314,-10.736,2.608
98.900981,-0.275,-10.298,2.606
98.910686,-0.275,-9.789,2.655
98.920379,-0.314,-9.389,2.646
98.930072,-0.392,-9.178,2.803
98.939765,-0.431,-9.089,2.978
98.949458,-0.471,-9.039,3.146
98.959151,-0.588,-9.116,3.133
98.968844,-0.706,-9.316,3.137
98.978537,-0.785,-9.439,3.155
98.98823,-0.824,-9.446,3.194
98.997923,-0.902,-9.355,3.13
99.007616,-0.981,-9.278,3.144
99.017309,-1.02,-9.316,3.137
99.027002,-1.02,-9.355,3.13
99.036695,-0.941,-9.38,3.046
99.046359,-0.902,-9.45,2.994
99.056023,-0.863,-9.475,2.91
99.065687,-0.785,-9.409,2.762
99.075351,-0.785,-9.266,2.628
99.085015,-0.745,-9.123,2.494
99.094679,-0.628,-8.987,2.399
99.104343,-0.51,-8.773,2.317
99.114007,-0.431,-8.605,2.267
99.123671,-0.392,-8.514,2.203
99.133335,-0.314,-8.501,2.126
99.142999,-0.196,-8.616,2.105
99.152663,-0.118,-8.823,2.149
99.162327,-0.118,-9.023,2.153
99.171991,-0.118,-9.184,2.165
99.181643,-0.157,-9.373,2.33
99.191295,-0.235,-9.457,2.355
99.200947,-0.275,-9.503,2.387
99.210599,-0.275,-9.432,2.44
99.220251,-0.275,-9.439,2.478
99.229903,-0.353,-9.491,2.549
99.239555,-0.392,-9.537,2.58
99.249207,-0.392,-9.614,2.567
99.258859,-0.392,-9.775,2.578
99.268511,-0.392,-9.898,2.596
99.278163,-0.392,-9.93,2.551
99.287815,-0.431,-9.898,2.596
99.297467,-0.51,-9.898,2.596
99.307105,-0.549,-9.839,2.487
99.316743,-0.628,-9.93,2.551
99.326381,-0.588,-9.962,2.506
99.336019,-0.588,-9.962,2.506
99.345657,-0.628,-9.923,2.512
99.355295,-0.628,-9.923,2.512
99.364933,-0.667,-9.839,2.487
99.374571,-0.628,-9.716,2.469
99.384209,-0.628,-9.787,2.417
99.393847,-0.667,-9.941,2.39
99.403485,-0.628,-10.212,2.342
99.413123,-0.706,-10.502,2.41
99.422761,-0.706,-10.568,2.558
99.432399,-0.667,-10.575,2.596
99.442029,-0.588,-10.634,2.706
99.451659,-0.549,-10.848,2.787
99.461289,-0.392,-10.882,2.981
99.470919,-0.078,-10.566,2.996
99.480549,0.039,-10.359,2.953
99.490179,0.157,-10.307,2.883
99.499809,0.275,-10.623,2.867
99.509439,0.353,-10.9,2.858
99.519069,0.392,-10.823,2.871
99.528699,0.431,-10.539,2.842
99.538329,0.431,-10.223,2.858
99.547959,0.471,-9.868,2.88
99.557589,0.471,-9.598,2.928
99.567219,0.471,-9.212,2.996
99.576853,0.431,-9.05,2.985
99.586487,0.431,-8.966,2.96
99.596121,0.392,-9.05,2.985
99.605755,0.353,-9.128,2.971
99.615389,0.275,-9.212,2.996
99.625023,0.235,-9.205,2.958
99.634657,0.235,-9.205,2.958
99.644291,0.157,-9.198,2.919
99.653925,0.118,-9.198,2.919
99.663559,0.039,-9.23,2.874
99.673193,0,-9.184,2.842
99.682827,-0.118,-9.139,2.81
99.692461,-0.235,-9.073,2.662
99.702103,-0.353,-8.989,2.637
99.711745,-0.392,-8.853,2.542
99.721387,-0.431,-8.769,2.517
99.731029,-0.431,-8.639,2.46
99.740671,-0.392,-8.6,2.467
99.750313,-0.353,-8.541,2.358
99.759955,-0.314,-8.528,2.28
99.769597,-0.275,-8.598,2.228
99.779239,-0.235,-8.644,2.26
99.788881,-0.235,-8.714,2.208
99.798523,-0.196,-8.798,2.233
99.808165,-0.157,-8.882,2.258
99.817807,-0.078,-8.98,2.36
99.827449,-0.039,-9.071,2.424
99.837095,0,-9.232,2.435
99.846741,0.039,-9.375,2.569
99.856387,0.118,-9.512,2.665
99.866033,0.118,-9.634,2.683
99.875679,0.157,-9.666,2.637
99.885325,0.157,-9.712,2.669
99.894971,0.196,-9.712,2.669
99.904617,0.235,-9.712,2.669
99.914263,0.196,-9.796,2.694
99.923909,0.157,-9.918,2.712
99.933555,0.078,-10.041,2.73
99.943201,0.039,-10.118,2.717
99.952847,0.039,-10.273,2.69
99.962493,-0.039,-10.459,2.617
99.97212,-0.039,-10.621,2.628
99.981747,-0.078,-10.673,2.699
99.991374,-0.078,-10.705,2.653
100.001001,-0.118,-10.782,2.64
100.010628,-0.118,-10.968,2.567
100.020255,-0.157,-11.277,2.513
100.029882,-0.235,-11.673,2.722
100.039509,-0.235,-11.875,2.965
100.049136,-0.157,-11.623,2.89
100.058763,-0.157,-11.17,2.81
100.06839,-0.118,-10.802,2.756
100.078017,-0.235,-10.668,2.899
100.087644,-0.275,-10.541,3.08
100.097271,-0.275,-10.386,3.108
100.106921,-0.353,-10.25,3.012
100.116571,-0.353,-10.25,3.012
100.126221,-0.431,-10.209,2.78
100.135871,-0.549,-10.202,2.742
100.145521,-0.706,-10.034,2.692
100.155171,-0.706,-9.796,2.694
100.164821,-0.706,-9.596,2.69
100.174471,-0.628,-9.493,2.787
100.184121,-0.549,-9.468,2.871
100.193771,-0.431,-9.359,2.93
100.203421,-0.353,-9.353,2.892
100.213071,-0.314,-9.391,2.885
100.222721,-0.235,-9.482,2.949
100.232342,-0.196,-9.521,2.942
100.241963,-0.235,-9.353,2.892
100.251584,-0.196,-9.307,2.86
100.261205,-0.235,-9.237,2.912
100.270826,-0.235,-9.159,2.926
100.280447,-0.314,-9.043,2.946
100.290068,-0.392,-9.121,2.933
100.299689,-0.431,-9.153,2.887
100.30931,-0.431,-9.178,2.803
100.318931,-0.471,-9.157,2.687
100.328552,-0.471,-9.091,2.539
100.338173,-0.431,-9.032,2.43
100.347794,-0.353,-9.05,2.308
100.357415,-0.275,-9.044,2.269
100.367036,-0.157,-9.005,2.276
100.376609,-0.118,-8.862,2.142
100.386182,-0.078,-8.778,2.117
100.395755,-0.118,-8.816,2.11
100.405328,0,-8.764,2.04
100.414901,0,-8.855,2.103
100.424474,0,-8.946,2.167
100.434047,-0.039,-9.159,2.249
100.44362,-0.039,-9.264,2.39
100.453193,-0.039,-9.387,2.408
100.462766,-0.039,-9.491,2.549
100.472339,-0.118,-9.55,2.658
100.481912,-0.118,-9.596,2.69
100.491485,-0.157,-9.68,2.715
100.501058,-0.196,-9.764,2.74
100.510608,-0.275,-9.912,2.674
100.520158,-0.353,-10.073,2.685
100.529708,-0.431,-10.118,2.717
100.539258,-0.549,-10.112,2.678
100.548808,-0.588,-10.052,2.569
100.558358,-0.667,-10.046,2.531
100.567908,-0.706,-9.987,2.421
100.577458,-0.745,-9.941,2.39
100.587008,-0.667,-9.966,2.306
100.596558,-0.667,-10.121,2.278
100.606108,-0.628,-10.25,2.335
100.615658,-0.588,-10.257,2.374
100.625208,-0.471,-10.207,2.542
100.634765,-0.353,-9.95,2.667
100.644322,-0.196,-10.014,2.576
100.653879,-0.078,-10.407,2.546
100.663436,-0.039,-10.93,2.574
100.672993,-0.039,-11.08,2.747
100.68255,0,-10.957,2.728
100.692107,0,-10.834,2.71
100.701664,0,-10.795,2.717
100.711221,0.039,-10.764,2.762
100.720778,0.078,-10.571,2.796
100.730335,0.118,-10.3,2.844
100.739892,0.157,-10.1,2.84
100.749449,0.078,-9.862,2.842
100.759,0.078,-9.739,2.824
100.768551,0.078,-9.648,2.76
100.778102,0.078,-9.641,2.721
100.787653,0.118,-9.655,2.799
100.797204,0.157,-9.603,2.728
100.806755,0.196,-9.571,2.774
100.816306,0.196,-9.455,2.794
100.825857,0.235,-9.378,2.808
100.835408,0.196,-9.3,2.821
100.844959,0.078,-9.262,2.828
100.85451,0.039,-9.184,2.842
100.864061,0.039,-9.132,2.771
100.873612,0,-9.048,2.746
100.883163,-0.039,-9.003,2.714
100.892739,-0.039,-8.912,2.651
100.902315,0,-8.884,2.496
100.911891,-0.039,-8.853,2.542
100.921467,-0.039,-8.859,2.58
100.931043,-0.078,-8.898,2.574
100.940619,-0.157,-8.905,2.612
100.950195,-0.157,-8.905,2.612
100.959771,-0.196,-8.944,2.605
100.969347,-0.235,-8.937,2.567
100.978923,-0.275,-8.898,2.574
100.988499,-0.314,-8.937,2.567
100.998075,-0.392,-8.982,2.599
101.007651,-0.392,-9.034,2.669
101.017239,-0.353,-9.087,2.739
101.026827,-0.314,-9.223,2.835
101.036415,-0.235,-9.328,2.976
101.046003,-0.196,-9.373,3.008
101.055591,-0.196,-9.45,2.994
101.065179,-0.157,-9.573,3.012
101.074767,-0.078,-9.766,2.978
101.084355,-0.118,-10.107,2.878
101.093943,-0.078,-10.423,2.862
101.103531,-0.039,-10.5,2.849
101.113119,-0.078,-10.409,2.785
101.122707,-0.039,-10.273,2.69
101.132295,0,-10.112,2.678
101.141883,0,-9.905,2.635
101.151471,0.078,-9.73,2.546
101.161075,0.157,-9.607,2.528
101.170679,0.118,-9.548,2.419
101.180283,0.118,-9.671,2.437
101.189887,0.118,-9.78,2.378
101.199491,0.078,-9.85,2.326
101.209095,0.039,-9.896,2.358
101.218699,0,-9.857,2.365
101.228303,-0.078,-9.773,2.34
101.237907,-0.118,-9.857,2.365
101.247511,-0.235,-10.032,2.453
101.257115,-0.314,-10.189,2.665
101.266719,-0.431,-10.209,2.78
101.276323,-0.471,-10.318,2.721
101.285969,-0.588,-10.634,2.706
101.295615,-0.628,-10.932,2.812
101.305261,-0.588,-11.114,2.94
101.314907,-0.549,-11.068,2.908
101.324553,-0.392,-10.977,2.844
101.334199,-0.275,-10.957,2.728
101.343845,-0.235,-10.814,2.594
101.353491,-0.196,-10.639,2.506
101.363137,-0.196,-10.296,2.367
101.372783,-0.196,-9.889,2.319
101.382429,-0.157,-9.437,2.24
101.392075,-0.196,-9.082,2.262
101.401721,-0.235,-8.889,2.296
101.411391,-0.235,-8.748,2.401
101.421061,-0.235,-8.871,2.419
101.430731,-0.275,-9.13,2.533
101.440401,-0.275,-9.305,2.621
101.450071,-0.275,-9.35,2.653
101.459741,-0.314,-9.396,2.685
101.469411,-0.275,-9.403,2.724
101.479081,-0.275,-9.357,2.692
101.488751,-0.314,-9.287,2.744
101.498421,-0.314,-9.409,2.762
101.508091,-0.314,-9.596,2.69
101.517761,-0.275,-9.712,2.669
101.527431,-0.275,-9.737,2.585
101.537101,-0.275,-9.684,2.515
101.546791,-0.275,-9.632,2.444
101.556481,-0.392,-9.503,2.387
101.566171,-0.353,-9.289,2.305
101.575861,-0.235,-9.107,2.178
101.585551,-0.235,-8.932,2.09
101.595241,-0.196,-8.894,2.096
101.604931,-0.196,-8.862,2.142
101.614621,-0.157,-8.875,2.219
101.624311,-0.118,-8.998,2.237
101.634001,-0.078,-9.141,2.371
101.643691,-0.078,-9.232,2.435
101.653381,-0.118,-9.4,2.485
101.663071,-0.157,-9.53,2.542
101.672761,-0.196,-9.575,2.574
101.6825,-0.196,-9.725,2.746
101.692239,-0.314,-9.789,2.655
101.701978,-0.314,-9.905,2.635
101.711717,-0.392,-10.014,2.576
101.721456,-0.392,-10.007,2.537
101.731195,-0.392,-9.968,2.544
101.740934,-0.353,-9.891,2.558
101.750673,-0.392,-9.807,2.533
101.760412,-0.353,-9.748,2.424
101.770151,-0.353,-9.703,2.392
101.77989,-0.392,-9.682,2.276
101.789629,-0.431,-9.637,2.244
101.799368,-0.471,-9.578,2.135
101.80914,-0.471,-9.578,2.135
101.818912,-0.549,-9.532,2.103
101.828684,-0.588,-9.557,2.019
101.838456,-0.667,-9.571,2.096
101.848228,-0.706,-9.687,2.076
101.858,-0.706,-10.098,1.924
101.867772,-0.706,-10.846,1.872
101.877544,-0.863,-11.32,2.306
101.887316,-0.824,-11.116,2.501
101.897088,-0.706,-10.689,2.337
101.90686,-0.51,-10.546,2.203
101.916632,-0.353,-10.914,2.258
101.926404,-0.157,-11.373,2.376
101.936176,-0.078,-11.357,2.737
101.945973,0.118,-10.848,2.787
101.95577,0.157,-10.577,2.835
101.965567,0.314,-10.686,2.776
101.975364,0.235,-10.964,2.767
101.985161,0.314,-10.995,2.722
101.994958,0.392,-10.673,2.699
102.004755,0.392,-10.189,2.665
102.014552,0.392,-9.698,2.592
102.024349,0.431,-9.35,2.653
102.034146,0.392,-9.164,2.726
102.043943,0.392,-9.146,2.849
102.05374,0.392,-9.275,2.905
102.063537,0.314,-9.482,2.949
102.073334,0.196,-9.643,2.96
102.083123,0.039,-9.689,2.992
102.092912,0.039,-9.752,2.901
102.102701,-0.039,-9.784,2.855
102.11249,-0.078,-9.732,2.785
102.122279,-0.118,-9.518,2.703
102.132068,-0.157,-9.389,2.646
102.141857,-0.196,-9.214,2.558
102.151646,-0.235,-9.046,2.508
102.161435,-0.275,-8.916,2.451
102.171224,-0.353,-8.896,2.335
102.181013,-0.392,-8.928,2.289
102.190802,-0.471,-8.991,2.199
102.200591,-0.471,-8.985,2.16
102.21038,-0.471,-8.939,2.128
102.220193,-0.549,-8.914,2.212
102.230006,-0.471,-8.816,2.11
102.239819,-0.353,-8.707,2.169
102.249632,-0.314,-8.56,2.235
102.259445,-0.275,-8.528,2.28
102.269258,-0.275,-8.573,2.312
102.279071,-0.275,-8.78,2.355
102.288884,-0.314,-8.987,2.399
102.298697,-0.275,-9.194,2.442
102.30851,-0.275,-9.407,2.524
102.318323,-0.314,-9.537,2.58
102.328136,-0.314,-9.537,2.58
102.337949,-0.314,-9.614,2.567
102.347735,-0.275,-9.582,2.612
102.357521,-0.235,-9.562,2.496
102.367307,-0.275,-9.478,2.471
102.377093,-0.314,-9.587,2.412
102.386879,-0.353,-9.696,2.353
102.396665,-0.392,-9.812,2.333
102.406451,-0.431,-9.857,2.365
102.416237,-0.471,-9.903,2.396
102.426023,-0.471,-9.955,2.467
102.435809,-0.471,-10.032,2.453
102.445595,-0.471,-10.148,2.433
102.455381,-0.471,-10.341,2.399
102.465167,-0.392,-10.559,2.281
102.474953,-0.392,-10.9,2.181
102.484739,-0.392,-11.146,2.217
102.49451,-0.392,-11.198,2.288
102.504281,-0.314,-11.205,2.326
102.514052,-0.235,-11.148,2.456
102.523823,-0.196,-10.898,2.619
102.533594,-0.157,-10.55,2.681
102.543365,-0.196,-10.266,2.651
102.553136,-0.275,-10.214,2.581
102.562907,-0.353,-10.137,2.594
102.572678,-0.471,-10.168,2.549
102.582449,-0.471,-10.162,2.51
102.59222,-0.549,-10.225,2.419
102.601991,-0.667,-10.327,2.321
102.611762,-0.863,-10.368,2.553
102.621502,-0.824,-9.898,2.596
102.631242,-0.745,-9.512,2.665
102.640982,-0.628,-9.28,2.705
102.650722,-0.549,-9.196,2.68
102.660462,-0.51,-9.209,2.758
102.670202,-0.392,-9.248,2.751
102.679942,-0.392,-9.3,2.821
102.689682,-0.353,-9.3,2.821
102.699422,-0.353,-9.339,2.814
102.709162,-0.314,-9.448,2.755
102.718902,-0.314,-9.55,2.658
102.728642,-0.353,-9.68,2.715
102.738382,-0.392,-9.621,2.605
102.748122,-0.314,-9.628,2.644
102.757847,-0.353,-9.691,2.553
102.767572,-0.314,-9.575,2.574
102.777297,-0.314,-9.516,2.465
102.787022,-0.235,-9.387,2.408
102.796747,-0.196,-9.366,2.292
102.806472,-0.157,-9.237,2.235
102.816197,-0.118,-9.139,2.133
102.825922,-0.118,-9.01,2.076
102.835647,-0.157,-8.887,2.058
102.845372,-0.157,-8.803,2.033
102.855097,-0.118,-8.848,2.065
102.864822,-0.118,-9.023,2.153
102.874547,-0.157,-9.198,2.242
102.884239,-0.157,-9.405,2.285
102.893931,-0.157,-9.541,2.38
102.903623,-0.275,-9.587,2.412
102.913315,-0.235,-9.625,2.405
102.923007,-0.235,-9.787,2.417
102.932699,-0.275,-9.857,2.365
102.942391,-0.235,-9.818,2.371
102.952083,-0.235,-9.741,2.385
102.961775,-0.235,-9.748,2.424
102.971467,-0.275,-9.793,2.455
102.981159,-0.314,-9.762,2.501
102.990851,-0.392,-9.852,2.565
103.000543,-0.431,-10.007,2.537
103.010235,-0.51,-10.309,2.444
103.019919,-0.588,-10.491,2.571
103.029603,-0.706,-10.509,2.449
103.039287,-0.824,-10.509,2.449
103.048971,-0.824,-10.302,2.406
103.058655,-0.785,-10.18,2.387
103.068339,-0.706,-10.166,2.31
103.078023,-0.667,-10.037,2.253
103.087707,-0.549,-9.855,2.126
103.097391,-0.471,-9.873,2.003
103.107075,-0.471,-10.13,1.878
103.116759,-0.51,-10.432,1.785
103.126443,-0.628,-10.814,1.917
103.136127,-0.667,-11.009,2.122
103.145779,-0.745,-11.023,2.199
103.155431,-0.588,-10.871,2.465
103.165083,-0.431,-10.621,2.628
103.174735,-0.196,-10.448,2.778
103.184387,-0.039,-10.409,2.785
103.194039,0.078,-10.564,2.758
103.203691,0.157,-10.711,2.692
103.213343,0.235,-10.627,2.667
103.222995,0.196,-10.505,2.649
103.232647,0.118,-10.305,2.644
103.242299,0.039,-10.048,2.769
103.251951,0.039,-9.7,2.83
103.261603,0,-9.378,2.808
103.271255,-0.039,-9.184,2.842
103.280898,-0.078,-9.075,2.901
103.290541,-0.196,-9.03,2.869
103.300184,-0.235,-8.998,2.914
103.309827,-0.275,-9.005,2.953
103.31947,-0.392,-8.928,2.967
103.329113,-0.51,-9.005,2.953
103.338756,-0.549,-9.198,2.919
103.348399,-0.628,-9.359,2.93
103.358042,-0.667,-9.475,2.91
103.367685,-0.667,-9.578,2.812
103.377328,-0.667,-9.648,2.76
103.386971,-0.628,-9.532,2.78
103.396614,-0.51,-9.325,2.737
103.406238,-0.392,-9.119,2.694
103.415862,-0.392,-8.912,2.651
103.425486,-0.314,-8.821,2.587
103.43511,-0.353,-8.807,2.51
103.444734,-0.353,-8.878,2.458
103.454358,-0.353,-8.98,2.36
103.463982,-0.431,-8.825,2.387
103.473606,-0.392,-8.773,2.317
103.48323,-0.392,-8.98,2.36
103.492854,-0.353,-9.155,2.449
103.502478,-0.314,-9.253,2.551
103.512102,-0.314,-9.266,2.628
103.521726,-0.314,-9.216,2.796
103.53135,-0.314,-9.216,2.796
103.540941,-0.314,-9.23,2.874
103.550532,-0.235,-9.391,2.885
103.560123,-0.118,-9.584,2.851
103.569714,-0.078,-9.764,2.74
103.579305,-0.078,-10.098,2.601
103.588896,-0.118,-10.125,2.755
103.598487,-0.078,-10.034,2.692
103.608078,-0.078,-10.041,2.73
103.617669,-0.039,-9.964,2.744
103.62726,-0.039,-9.95,2.667
103.636851,0,-9.834,2.687
103.646442,0.039,-9.743,2.624
103.656033,-0.039,-9.659,2.599
103.665624,-0.078,-9.653,2.56
103.675186,-0.078,-9.768,2.54
103.684748,-0.157,-9.832,2.449
103.69431,-0.157,-9.968,2.544
103.703872,-0.275,-10.052,2.569
103.713434,-0.314,-10.123,2.517
103.722996,-0.314,-10.271,2.451
103.732558,-0.196,-10.509,2.449
103.74212,-0.118,-10.761,2.524
103.751682,0,-10.755,2.485
103.761244,0.118,-10.605,2.312
103.770806,0.118,-10.352,2.237
103.780368,0.039,-10.03,2.215
103.78993,0,-9.953,2.228
103.799492,-0.157,-9.998,2.26
103.809054,-0.314,-10.243,2.296
103.818571,-0.471,-10.489,2.333
103.828088,-0.628,-10.759,2.285
103.837605,-0.667,-10.886,2.103
103.847122,-0.785,-10.964,2.09
103.856639,-0.863,-11.073,2.031
103.866156,-1.059,-11.227,2.003
103.875673,-1.412,-11.493,2.156
103.88519,-1.804,-11.748,2.469
103.894707,-2.236,-11.95,2.713
103.904224,-2.589,-11.984,2.906
103.913741,-2.981,-11.959,2.99
103.923258,-3.373,-11.888,3.042
103.932775,-3.53,-11.843,3.01
103.942284,-3.413,-11.616,2.851
103.951793,-2.981,-11.105,2.662
103.961302,-2.589,-10.457,2.378
103.970811,-2.197,-9.875,2.242
103.98032,-2.001,-9.473,1.994
103.989829,-1.922,-9.239,1.796
103.999338,-1.648,-9.148,1.733
104.008847,-1.294,-8.973,1.644
104.018356,-0.824,-8.707,1.492
104.027865,-0.431,-8.364,1.353
104.037374,-0.235,-8.014,1.176
104.046883,-0.118,-7.749,1.024
104.056392,0.039,-7.805,0.894
104.065884,0.157,-7.978,0.744
104.075376,0.471,-8.228,0.581
104.084868,0.785,-8.644,0.228
104.09436,1.098,-8.933,0.058
104.103852,1.177,-9.21,0.049
104.113344,1.138,-9.435,-0.03
104.122836,1.177,-9.319,-0.01
104.132328,1.177,-9.098,-0.131
104.14182,1.138,-9.219,-0.351
104.151312,1.138,-9.276,-0.48
104.160804,1.02,-9.508,-0.521
104.170296,0.941,-9.61,-0.619
104.179788,0.941,-9.603,-0.658
104.18928,0.902,-9.667,-0.749
104.198788,0.824,-9.685,-0.871
104.208296,0.745,-9.703,-0.994
104.217804,0.628,-9.689,-1.071
104.227312,0.549,-9.714,-1.155
104.23682,0.549,-9.785,-1.208
104.246328,0.51,-9.933,-1.273
104.255836,0.471,-9.946,-1.196
104.265344,0.431,-9.753,-1.162
104.274852,0.353,-9.708,-1.194
104.28436,0.157,-9.721,-1.117
104.293868,0,-9.753,-1.162
104.303376,-0.196,-9.676,-1.148
104.312884,-0.275,-9.521,-1.121
104.322442,-0.353,-9.469,-1.192
104.332,-0.431,-9.424,-1.223
104.341558,-0.471,-9.455,-1.269
104.351116,-0.549,-9.564,-1.328
104.360674,-0.588,-9.814,-1.492
104.370232,-0.588,-10.194,-1.598
104.37979,-0.471,-10.51,-1.614
104.389348,-0.314,-10.646,-1.519
104.398906,-0.118,-10.276,-1.135
104.408464,0,-9.717,-0.917
104.418022,0,-9.605,-1.096
104.42758,-0.157,-10.551,-1.382
104.437138,-0.314,-11.519,-1.314
104.446724,-0.235,-11.964,-1.273
104.45631,-0.196,-11.784,-1.162
104.465896,-0.235,-11.223,-1.182
104.475482,-0.157,-10.823,-1.191
104.485068,-0.078,-10.662,-1.203
104.494654,0,-10.655,-1.241
104.50424,0.078,-10.526,-1.298
104.513826,0.196,-10.473,-1.369
104.523412,0.353,-10.46,-1.446
104.532998,0.51,-10.369,-1.51
104.542584,0.667,-10.292,-1.496
104.55217,0.863,-10.253,-1.489
104.561756,1.02,-10.176,-1.476
104.571342,1.059,-10.137,-1.469
104.580956,0.863,-10.042,-1.332
104.59057,0.667,-9.914,-1.151
104.600184,0.314,-9.676,-1.148
104.609798,0,-9.521,-1.121
104.619412,-0.235,-9.567,-1.089
104.629026,-0.431,-9.728,-1.078
104.63864,-0.706,-9.928,-1.073
104.648254,-0.941,-10.019,-1.01
104.657868,-1.138,-9.987,-0.964
104.667482,-1.216,-9.846,-0.86
104.677096,-1.373,-9.653,-0.826
104.68671,-1.373,-9.639,-0.903
104.696324,-1.334,-9.639,-0.903
104.705938,-1.294,-9.658,-1.026
104.715611,-1.216,-9.728,-1.078
104.725284,-1.216,-9.637,-1.142
104.734957,-1.138,-9.676,-1.148
104.74463,-1.059,-9.662,-1.226
104.754303,-1.098,-9.649,-1.303
104.763976,-1.059,-9.603,-1.335
104.773649,-1.059,-9.551,-1.405
104.783322,-1.098,-9.505,-1.437
104.792995,-1.02,-9.499,-1.476
104.802668,-0.941,-9.446,-1.546
104.812341,-0.941,-9.453,-1.508
104.822014,-0.941,-9.544,-1.444
104.831687,-1.02,-9.737,-1.478
104.841395,-1.098,-9.821,-1.453
104.851103,-1.02,-9.86,-1.46
104.860811,-0.863,-9.776,-1.485
104.870519,-0.706,-9.646,-1.542
104.880227,-0.549,-9.478,-1.592
104.889935,-0.471,-9.342,-1.687
104.899643,-0.353,-9.244,-1.789
104.909351,-0.196,-9.083,-1.801
104.919059,-0.039,-9.024,-1.91
104.928767,0.118,-9.133,-1.969
104.938475,0.196,-9.333,-1.964
104.948183,0.275,-9.519,-2.037
104.957891,0.314,-9.674,-2.064
104.967599,0.353,-9.79,-2.085
104.977361,0.235,-9.835,-2.053
104.987123,0.275,-9.86,-2.137
104.996885,0.157,-9.944,-2.112
105.006647,0.078,-10.105,-2.101
105.016409,-0.039,-10.137,-2.146
105.026171,-0.196,-10.162,-2.23
105.035933,-0.235,-10.239,-2.244
105.045695,-0.353,-10.38,-2.348
105.055457,-0.431,-10.528,-2.414
105.065219,-0.471,-10.592,-2.505
105.074981,-0.51,-10.655,-2.596
105.084743,-0.431,-10.796,-2.7
105.094505,-0.353,-10.835,-2.707
105.104287,-0.275,-10.571,-2.621
105.114069,-0.078,-10.242,-2.682
105.123851,0.039,-10.137,-2.823
105.133633,0.039,-10.271,-2.966
105.143415,0.039,-10.367,-3.103
105.153197,0.039,-10.515,-3.168
105.162979,-0.039,-10.437,-3.155
105.172761,-0.039,-10.262,-3.243
105.182543,0,-10.031,-3.203
105.192325,-0.039,-9.696,-3.064
105.202107,-0.039,-9.369,-2.887
105.211889,-0.157,-9.042,-2.71
105.221671,-0.235,-8.806,-2.469
105.231453,-0.353,-8.756,-2.301
105.241276,-0.549,-8.84,-2.276
105.251099,-0.628,-9.226,-2.344
105.260922,-0.706,-9.683,-2.464
105.270745,-0.745,-10.037,-2.487
105.280568,-0.745,-10.108,-2.539
105.290391,-0.706,-10.108,-2.539
105.300214,-0.667,-10.146,-2.546
105.310037,-0.706,-10.23,-2.521
105.31986,-0.706,-10.23,-2.521
105.329683,-0.745,-10.121,-2.462
105.339506,-0.706,-9.999,-2.48
105.349329,-0.706,-9.915,-2.505
105.359152,-0.706,-9.844,-2.453
105.36898,-0.785,-9.665,-2.341
105.378808,-0.745,-9.426,-2.339
105.388636,-0.824,-9.233,-2.305
105.398464,-0.824,-9.285,-2.235
105.408292,-0.863,-9.344,-2.126
105.41812,-0.863,-9.34,-1.926
105.427948,-0.902,-9.333,-1.964
105.437776,-0.902,-9.371,-1.971
105.447604,-0.941,-9.371,-1.971
105.457432,-1.02,-9.403,-2.017
105.46726,-1.059,-9.467,-2.107
105.477088,-1.059,-9.39,-2.094
105.486916,-1.059,-9.235,-2.067
105.528025,-1.059,-9.112,-2.085
105.537853,-0.941,-8.983,-2.142
105.547681,-0.941,-9.053,-2.194
105.557509,-0.941,-9.131,-2.207
105.567337,-0.981,-9.194,-2.298
105.577165,-1.02,-9.265,-2.351
105.586993,-1.098,-9.342,-2.364
105.596821,-1.138,-9.419,-2.378
105.606649,-1.216,-9.394,-2.294
105.616477,-1.373,-9.356,-2.287
105.626305,-1.451,-9.285,-2.235
105.636133,-1.491,-9.183,-2.137
105.645961,-1.491,-9.092,-2.201
105.655789,-1.491,-9.053,-2.194
105.635754,-1.53,-9.06,-2.155
105.645582,-1.608,-9.008,-2.226
105.65541,-1.648,-9.001,-2.264
105.665238,-1.53,-9.078,-2.278
105.675066,-1.451,-9.201,-2.26
105.684894,-1.255,-9.226,-2.344
105.694722,-1.02,-9.387,-2.332
105.70455,-0.824,-9.651,-2.419
105.714378,-0.588,-9.837,-2.491
105.724206,-0.392,-9.999,-2.48
105.734034,-0.196,-10.153,-2.507
105.743862,-0.157,-10.392,-2.509
105.75369,-0.118,-10.605,-2.428
105.763518,0.039,-10.523,-2.214
105.773315,0.353,-10.005,-1.764
105.783112,0.745,-9.376,-1.494
105.792909,1.216,-9.253,-1.512
105.802706,1.569,-9.608,-1.535
105.812503,1.961,-10.335,-1.703
105.8223,2.275,-11.089,-1.716
105.832097,2.785,-11.394,-1.571
105.841894,3.413,-11.285,-1.512
105.851691,3.962,-11.028,-1.387
105.861488,4.315,-10.855,-1.237
105.871285,4.472,-10.773,-1.023
105.881082,4.511,-10.639,-0.88
105.890879,4.59,-10.628,-0.719
105.900676,4.707,-10.616,-0.558
105.910431,4.825,-10.546,-0.505
105.920186,4.864,-10.341,-0.31
105.929941,4.746,-10.141,-0.314
105.939696,4.59,-10.141,-0.314
105.949451,4.393,-9.917,-0.235
105.959206,4.236,-9.66,-0.11
105.968961,4.08,-9.442,0.008
105.978716,3.962,-9.346,0.144
105.988471,3.805,-9.328,0.267
105.998226,3.53,-9.398,0.215
106.007981,3.217,-9.585,0.142
106.017736,2.903,-9.694,0.083
106.027491,2.55,-9.803,0.024
106.037246,2.314,-9.705,-0.078
106.046955,2.157,-9.744,-0.085
106.056664,1.883,-9.594,-0.258
106.066373,1.608,-9.246,-0.196
106.076082,1.412,-9.026,-0.317
106.085791,1.451,-8.935,-0.381
106.0955,1.569,-9.037,-0.478
106.105209,1.844,-9.242,-0.674
106.114918,2.118,-9.589,-0.735
106.124627,2.314,-9.803,-0.653
106.134336,2.432,-9.764,-0.646
106.144045,2.471,-9.442,-0.669
106.153754,2.55,-9.267,-0.758
106.163463,2.824,-9.317,-0.926
106.173172,3.217,-9.619,-1.019
106.18285,3.57,-9.987,-0.964
106.192528,3.648,-10.214,-0.805
106.202206,3.452,-10.285,-0.858
106.211884,3.099,-10.271,-0.935
106.221562,2.55,-10.282,-1.096
106.23124,1.961,-10.36,-1.11
106.240918,1.569,-10.321,-1.103
106.250596,1.334,-10.237,-1.128
106.260274,0.981,-10.185,-1.198
106.269952,0.667,-10.087,-1.301
106.27963,0.314,-10.021,-1.448
106.289308,0.039,-9.903,-1.667
106.298986,-0.157,-9.894,-1.944
106.308638,-0.235,-10.033,-2.287
106.31829,-0.314,-10.346,-2.541
106.327942,-0.235,-10.71,-2.964
106.337594,-0.157,-11.214,-3.491
106.347246,-0.392,-11.489,-3.739
106.356898,-0.51,-11.287,-3.305
106.36655,-0.628,-10.176,-2.83
106.376202,-0.588,-9.151,-2.769
106.385854,-0.549,-8.499,-2.853
106.395506,-0.588,-8.665,-3.041
106.405158,-0.824,-9.262,-3.266
106.41481,-1.138,-9.694,-3.303
106.424462,-1.491,-9.676,-3.18
106.434114,-1.687,-9.437,-3.178
106.443734,-1.844,-9.16,-3.169
106.453354,-1.922,-9.122,-3.162
106.462974,-1.961,-9.349,-3.003
106.472594,-1.765,-9.549,-2.998
106.482214,-1.687,-9.608,-2.889
106.491834,-1.53,-9.653,-2.857
106.501454,-1.412,-9.737,-2.832
106.511074,-1.451,-9.558,-2.721
106.520694,-1.451,-9.21,-2.66
106.530314,-1.334,-8.733,-2.655
106.539934,-1.059,-8.694,-2.648
106.549554,-0.706,-8.585,-2.589
106.559174,-0.471,-8.617,-2.635
106.568794,-0.235,-8.719,-2.732
106.578408,-0.118,-8.86,-2.837
106.588022,-0.196,-8.963,-2.935
106.597636,-0.353,-9.06,-2.832
106.60725,-0.51,-8.983,-2.819
106.616864,-0.706,-8.751,-2.778
106.626478,-0.785,-8.544,-2.821
106.636092,-0.745,-8.66,-2.841
106.645706,-0.667,-8.853,-2.876
106.65532,-0.588,-9.015,-2.864
106.664934,-0.51,-9.047,-2.91
106.674548,-0.588,-9.078,-2.955
106.684162,-0.549,-9.162,-2.93
106.693776,-0.549,-9.053,-2.871
106.703384,-0.628,-9.124,-2.923
106.712992,-0.706,-9.156,-2.969
106.7226,-0.745,-9.051,-3.11
106.732208,-0.785,-9.172,-3.33
106.741816,-0.785,-9.551,-3.437
106.751424,-0.981,-9.515,-3.191
106.761032,-1.02,-9.224,-3.26
106.77064,-1.098,-9.397,-3.409
106.780248,-1.216,-9.597,-3.405
106.789856,-1.255,-9.681,-3.38
106.799464,-1.216,-10.21,-3.991
106.809072,-1.138,-11.48,-4.693
106.81868,-1.216,-11.671,-4.289
106.828288,-0.981,-11.665,-4.327
106.837888,-0.941,-11.305,-4.105
106.847488,-0.745,-10.74,-3.925
106.857088,-0.628,-10.296,-3.727
106.866688,-0.392,-9.672,-3.657
106.876288,-0.196,-9.781,-3.716
106.885888,-0.078,-9.967,-3.789
106.895488,0.118,-9.801,-3.6
106.905088,0.275,-9.64,-3.612
106.914688,0.392,-9.306,-3.473
106.924288,0.549,-9.217,-3.298
106.933888,0.431,-9.115,-3.2
106.943488,0.275,-9.181,-3.053
106.953088,0.118,-9.181,-3.053
106.962688,0.039,-9.297,-3.073
106.97231,0,-9.362,-2.925
106.981932,0,-9.267,-2.789
106.991554,0,-9.267,-2.789
107.001176,0,-9.319,-2.719
107.010798,0.078,-9.326,-2.68
107.02042,0.078,-9.462,-2.585
107.030042,0.078,-9.321,-2.48
107.039664,0.078,-9.187,-2.337
107.049286,0.078,-9.058,-2.394
107.058908,0.078,-8.974,-2.419
107.06853,0,-8.999,-2.503
107.078152,-0.039,-9.017,-2.626
107.087774,-0.078,-9.126,-2.685
107.097421,-0.157,-9.126,-2.685
107.107068,-0.157,-9.112,-2.762
107.116715,-0.235,-9.074,-2.755
107.126362,-0.275,-9.067,-2.794
107.136009,-0.275,-8.622,-2.835
107.145656,-0.314,-8.917,-2.966
107.155303,-0.392,-9.151,-2.769
107.16495,-0.431,-9.028,-2.787
107.174597,-0.392,-9.142,-3.046
107.184244,-0.431,-9.444,-3.139
107.193891,-0.392,-9.631,-3.212
107.203538,-0.392,-9.701,-3.264
107.213185,-0.353,-9.751,-3.432
107.222832,-0.392,-9.674,-3.419
107.232512,-0.392,-9.526,-3.353
107.242192,-0.275,-9.422,-3.494
107.251872,-0.275,-9.419,-3.732
107.261552,-0.196,-9.599,-3.843
107.271232,-0.196,-9.694,-3.98
107.280912,-0.196,-9.603,-4.043
107.290592,-0.196,-9.435,-4.093
107.300272,-0.275,-9.358,-4.08
107.309952,-0.314,-9.306,-4.15
107.319632,-0.392,-9.69,-4.457
107.329312,-0.471,-10.462,-4.593
107.338992,-0.706,-10.49,-4.439
107.348672,-0.745,-10.376,-4.18
107.358352,-0.785,-9.992,-3.873
107.368033,-0.902,-9.576,-3.521
107.377714,-0.981,-9.392,-3.21
107.387395,-1.138,-9.374,-3.087
107.397076,-1.138,-9.785,-3.239
107.406757,-1.334,-10.249,-3.321
107.416438,-1.53,-10.558,-3.375
