Time,GyroscopeX,GyroscopeY,GyroscopeZ
76.010237,-2.03,31.201,12.112
76.020928,-2.38,31.424,11.654
76.031619,-2.94,31.602,11.045
76.04231,-2.73,31.529,10.251
76.053001,-2.52,31.533,9.825
76.063692,-1.4,30.56,9.298
76.074383,0.07,28.938,9.225
76.085074,1.75,26.716,10.539
76.095765,3.15,23.472,12.811
76.106456,5.53,16.636,16.51
76.117147,5.46,14.961,17.138
76.127889,5.6,13.266,16.271
76.138631,5.46,12.114,15.144
76.149373,5.46,11.713,13.793
76.160115,6.02,11.104,12.407
76.170857,6.58,10.569,11.815
76.181599,6.51,10.058,11.085
76.192341,6.16,9.36,10.607
76.203083,6.02,8.939,10.177
76.213825,5.32,8.201,10.331
76.224567,3.57,7.682,10.453
76.235309,2.17,7.114,10.85
76.246088,1.05,7.094,10.562
76.256867,-0.49,6.716,10.283
76.267646,-1.68,6.465,10.096
76.278425,-3.64,5.97,10.08
76.289204,-5.67,5.516,10.64
76.299983,-7.56,5.233,11.442
76.310762,-9.38,5.237,12.225
76.321541,-10.64,5.407,12.468
76.33232,-11.69,6.092,11.807
76.343099,-11.62,6.883,10.952
76.353878,-10.92,8.132,10.319
76.364657,-8.96,9.295,8.96
76.375436,-6.93,10.463,7.176
76.386273,-5.46,11.768,5.416
76.39711,-5.53,12.453,3.546
76.407947,-7.63,12.883,1.916
76.418784,-9.66,13.378,0.724
76.429621,-12.25,14.051,0.132
76.440458,-13.51,13.949,-0.099
76.451295,-14.14,13.617,-0.229
76.462132,-14.56,12.737,0.327
76.472969,-13.58,11.61,1.478
76.483806,-12.11,10.697,3.024
76.494643,-11.27,9.477,4.301
76.50548,-9.8,8.958,5.631
76.516325,-8.96,9.311,7.257
76.52717,-7.56,9.721,7.756
76.538015,-5.74,11.237,6.815
76.54886,-3.29,12.737,5.16
76.559705,-1.4,14.392,4.244
76.57055,0.21,15.88,3.866
76.581395,0.63,17.457,2.581
76.59224,-0.91,17.842,0.8
76.603085,-2.8,17.42,0.371
76.61393,-4.9,17.384,-0.631
76.624775,-6.58,16.277,-1.608
76.63562,-7.14,14.051,0.132
76.646465,-6.02,11.93,4.094
76.65731,-4.2,10.021,7.667
76.668191,-2.38,9.494,8.64
76.679072,-0.77,9.441,8.133
76.689953,0.07,10.268,7.07
76.700834,0.14,11.038,4.718
76.711715,-0.49,11.744,1.929
76.722596,-1.68,11.046,-0.967
76.733477,-3.36,10.344,-2.228
76.744358,-5.04,9.513,-3.156
76.755239,-6.58,8.057,-3.768
76.76612,-7.63,6.504,-3.829
76.777001,-8.33,5.121,-3.646
76.787869,-8.96,3.475,-3.581
76.798737,-9.1,2.542,-3.532
76.809605,-8.89,1.593,-4.197
76.820473,-8.47,0.981,-5.158
76.831341,-7.98,0.948,-6.585
76.842209,-6.23,1.309,-7.019
76.853077,-4.34,2.136,-6.874
76.863945,-1.96,2.684,-6.35
76.874813,-0.07,3.036,-5.933
76.885681,1.47,3.551,-5.629
76.896549,2.52,4.046,-5.613
76.907417,3.15,4.764,-6.055
76.918285,3.08,5.133,-7.34
76.929138,3.99,5.497,-8.2
76.939991,3.71,6.138,-7.803
76.950844,3.15,6.69,-7.705
76.961697,2.66,7.18,-7.263
76.97255,1.61,7.355,-7.446
76.983403,0.98,7.886,-7.637
76.994256,0.28,7.967,-7.693
77.005109,-1.4,7.525,-7.203
77.015962,-1.89,7.103,-7.632
77.026815,-2.52,6.682,-8.062
77.037668,-3.01,6.754,-8.476
77.048521,-2.52,6.908,-8.946
77.059358,-2.8,6.916,-9.798
77.070195,-2.52,6.629,-9.778
77.081032,-2.66,6.393,-9.25
77.091869,-2.94,5.777,-8.577
77.102706,-3.99,5.007,-8.642
77.113543,-6.23,4.642,-8.991
77.12438,-9.03,4.171,-7.936
77.135217,-11.27,3.689,-6.813
77.146054,-12.81,3.616,-6.399
77.156891,-12.81,3.482,-6.849
77.167728,-11.62,3.511,-7.413
77.178565,-11.55,2.979,-7.222
77.189402,-11.13,1.885,-7.06
77.200222,-11.2,0.587,-7.36
77.211042,-13.51,-1.647,-5.977
77.221862,-17.78,-5.097,-2.534
77.232682,-23.52,-7.887,0.386
77.243502,-27.51,-9.708,-0.574
77.254322,-29.05,-11.545,0.168
77.265142,-27.65,-12.395,6.202
77.275962,-23.73,-12.934,10.869
77.286782,-18.41,-11.41,7.868
77.297602,-10.92,-8.933,-0.935
77.308422,-2.1,-7.876,-5.725
77.319242,4.76,-7.818,-3.227
77.330043,9.38,-10.089,1.988
77.340844,10.85,-13.08,6.863
77.351645,8.47,-13.737,9.377
77.362446,5.32,-14.09,8.959
77.373247,2.94,-13.036,8.221
77.384048,2.45,-11.365,9.227
77.394849,4.69,-9.284,10.731
77.40565,8.33,-7.617,13.37
77.416451,13.72,-6.976,18.601
77.427252,19.81,-7.186,22.616
77.438053,25.27,-7.798,24.072
77.448854,29.82,-8.796,24.891
77.459611,31.71,-9.757,25.503
77.470368,31.64,-11.261,26.375
77.481125,32.55,-14.25,27.199
77.491882,31.99,-18.442,28.805
77.502639,31.85,-23.064,32.042
77.513396,31.78,-26.486,34.921
77.524153,34.09,-27.674,35.209
77.53491,40.11,-26.191,30.424
77.545667,46.2,-24.915,24.394
77.556424,47.67,-23.938,22.079
77.567181,41.16,-21.424,21.527
77.577938,28.77,-17.807,18.753
77.588695,14.35,-13.448,15.399
77.599398,1.19,-8.546,11.785
77.610101,-10.64,-3.58,4.984
77.620804,-20.23,0.576,-1.249
77.631507,-27.86,2.384,-2.636
77.64221,-31.15,1.695,0.868
77.652913,-29.82,-0.871,8.163
77.663616,-26.67,-3.984,14.935
77.674319,-22.4,-6.631,19.87
77.685022,-18.06,-7.012,20.016
77.695725,-12.95,-3.895,14.027
77.706428,-10.43,0.82,4.623
77.717131,-10.71,6.876,-5.54
77.727834,-14.77,11.592,-11.319
77.738482,-22.19,14.41,-12.386
77.74913,-29.61,15.513,-9.775
77.759778,-36.54,15.327,-5.898
77.770426,-41.09,15.615,-3.502
77.781074,-43.54,16.207,-2.829
77.791722,-42.42,17.752,-3.125
77.80237,-39.9,19.686,-4.419
77.813018,-37.1,21.264,-3.288
77.823666,-35.56,21.99,1.461
77.834314,-38.01,24.654,-1.552
77.844962,-39.34,26.449,-12.538
77.85561,-37.38,27.921,-14.837
77.866247,-34.16,29.32,-11.889
77.876884,-28.49,28.979,-12.376
77.887521,-21.21,27.633,-12.4
77.898158,-14.14,25.046,-9.018
77.908795,-8.89,20.546,-2.845
77.919432,-6.09,15.138,5.655
77.930069,-7.35,10.982,10.679
77.940706,-10.99,8.306,7.72
77.951343,-13.09,6.63,3.515
77.96198,-12.32,6.051,3.981
77.972617,-11.2,5.325,5.275
77.983254,-10.57,4.607,3.3
77.993853,-9.8,4.813,0.92
78.004452,-10.08,5.851,-2.949
78.015051,-10.43,7.055,-7.357
78.02565,-11.62,7.946,-11.606
78.036249,-13.72,8.607,-15.755
78.046848,-16.1,9.506,-19.648
78.057447,-18.9,9.855,-22.43
78.068046,-21.49,9.607,-24.25
78.078645,-24.15,9.599,-24.607
78.089244,-26.25,9.635,-24.814
78.099843,-28.21,9.218,-24.461
78.110442,-30.52,8.447,-23.317
78.121041,-32.41,8.152,-21.237
78.13164,-33.88,7.374,-18.034
78.142239,-34.86,6.77,-15.013
78.152838,-36.26,6.79,-12.308
78.163383,-36.89,6.985,-10.994
78.173928,-35.91,7.184,-11.314
78.184473,-32.48,7.48,-10.978
78.195018,-28.98,7.565,-10.252
78.205563,-24.43,7.711,-8.663
78.216108,-20.65,7.578,-7.904
78.226653,-17.92,7.63,-9.814
78.237198,-14.91,7.228,-12.373
78.247743,-12.95,6.243,-11.622
78.258288,-11.69,4.828,-9.242
78.268816,-11.06,2.801,-6.614
78.279344,-11.76,1.244,-6.249
78.289872,-12.04,0.51,-6.52
78.3004,-11.06,-0.293,-5.596
78.310928,-9.94,-1.124,-4.108
78.321456,-8.82,-2.251,-2.956
78.331984,-9.38,-4.732,0.232
78.342512,-10.43,-5.693,0.844
78.35304,-11.06,-3.642,-6.755
78.363568,-10.36,-1.514,-12.777
78.374096,-8.12,0.379,-12.23
78.384624,-5.18,2.071,-10.937
78.395175,-1.19,3.169,-11.525
78.405726,0.49,2.018,-7.818
78.416277,-0.98,0.041,1.784
78.426828,-4.69,0.402,6.184
78.437379,-6.86,2.348,-0.012
78.44793,-5.67,4.16,-5.45
78.458481,-3.71,4.663,-5.077
78.469032,-2.8,2.701,-0.803
78.479583,-1.61,-0.534,5.45
78.490134,-0.56,-3.668,9.518
78.500685,-0.91,-7.986,13.447
78.511236,-2.24,-11.299,16.915
78.521827,-3.85,-13.249,18.703
78.532418,-5.04,-14.932,20.184
78.543009,-6.09,-15.747,21.177
78.5536,-6.37,-16.148,22.244
78.564191,-6.37,-15.544,22.848
78.574782,-5.25,-14.871,22.256
78.585373,-3.57,-14.088,21.043
78.595964,-2.24,-12.604,19.883
78.606555,-1.05,-12.057,19.198
78.617146,-0.49,-11.465,18.663
78.627737,-0.98,-11.201,18.78
78.638328,-2.31,-10.703,18.371
78.648935,-4.13,-10.184,17.04
78.659542,-6.86,-9.276,15.921
78.670149,-9.38,-8.489,14.283
78.680756,-11.2,-8.068,12.296
78.691363,-13.44,-7.63,9.814
78.70197,-15.4,-7.31,7.596
78.712577,-16.52,-7.594,5.982
78.723184,-16.94,-7.911,5.358
78.733791,-17.71,-8.304,5.573
78.744398,-17.29,-8.308,5.998
78.755005,-18.41,-8.904,5.751
78.765612,-18.34,-10.205,7.085
78.776219,-17.29,-11.961,10.188
78.786849,-15.96,-13.339,13.57
78.797479,-16.1,-14.486,15.642
78.808109,-15.82,-15.845,16.895
78.818739,-14.07,-16.968,18.83
78.829369,-11.06,-17.389,22.025
78.839999,-10.36,-17.936,26.336
78.850629,-11.13,-17.971,31.376
78.861259,-14.98,-15.531,28.821
78.871889,-20.23,-12.824,15.082
78.882519,-22.96,-10.084,6.396
78.893149,-21.35,-8.596,7.227
78.903779,-15.82,-8.263,9.774
78.914409,-8.96,-9.001,11.136
78.925051,-2.8,-9.524,11.684
78.935693,3.78,-9.791,14.409
78.946335,9.59,-9.693,19.899
78.956977,11.34,-9.121,20.284
78.967619,10.5,-7.626,11.805
78.978261,11.34,-5.303,3.472
78.988903,13.58,-2.149,-1.516
78.999545,15.47,0.705,-6.415
79.010187,15.82,2.302,-12.246
79.020829,14.77,3.144,-18.637
79.031471,12.88,3.099,-22.412
79.042113,10.15,2.576,-23.073
79.052811,7.77,2.061,-23.377
79.063509,5.04,1.168,-25.169
79.074207,3.15,0.961,-26.414
79.084905,2.73,2.036,-26.865
79.095603,2.31,3.013,-26.763
79.106301,0.7,4.283,-25.9
79.116999,-2.38,5.633,-25.093
79.127697,-5.67,6.241,-24.915
79.138395,-9.66,6.444,-24.452
79.149093,-13.65,6.736,-23.69
79.159791,-16.59,7.616,-23.037
79.170489,-18.69,8.383,-21.339
79.181224,-19.88,9.247,-20.191
79.191959,-21,10.196,-19.526
79.202694,-21.91,11.396,-19.883
79.213429,-22.47,12.255,-20.727
79.224164,-25.41,13.261,-21.189
79.234899,-29.68,13.601,-21.911
79.245634,-35.63,11.898,-24.344
79.256369,-44.52,8.536,-29.059
79.267104,-54.88,4.342,-33.495
79.277839,-62.44,-0.062,-35.124
79.288574,-64.68,-3.687,-33.915
79.299309,-62.3,-5.373,-32.009
79.310044,-57.12,-5.783,-31.3
79.320807,-50.75,-5.86,-31.669
79.33157,-42.28,-4.737,-31.186
79.342333,-31.78,-4.586,-30.023
79.353096,-23.1,-6.107,-27.447
79.363859,-16.66,-8.105,-22.966
79.374622,-12.74,-8.733,-22.224
79.385385,-10.57,-9.472,-23.278
79.396148,-3.5,-7.662,-18.624
79.406911,6.37,-3.23,-15.141
79.417674,14.91,0.93,-16.966
79.428437,21.56,4.665,-17.587
79.4392,24.71,8.744,-15.731
79.449969,24.43,12.731,-12.54
79.460738,22.68,15.549,-11.19
79.471507,20.16,16.839,-11.247
79.482276,20.23,16.608,-9.937
79.493045,22.33,15.497,-5.655
79.503814,24.57,13.406,0.16
79.514583,25.62,10.613,5.923
79.525352,23.24,7.268,10.38
79.536121,20.23,4.215,14.391
79.54689,16.66,1.341,17.793
79.557659,16.66,-1.185,23.247
79.568428,16.73,-3.078,26.325
79.579197,17.08,-5.276,28.71
79.589949,16.31,-6.39,32.21
79.600701,15.4,-6.536,34.245
79.611453,16.1,-6.767,35.555
79.622205,17.57,-6.499,37.664
79.632957,19.25,-6.507,39.724
79.643709,19.04,-5.509,41.321
79.654461,17.36,-5.026,41.406
79.665213,14.49,-5.31,42.209
79.675965,12.25,-5.549,43.162
79.686717,9.66,-5.934,43.734
79.697469,6.3,-5.906,43.17
79.708221,2.59,-6.697,41.609
79.718973,-0.77,-7.642,39.31
79.729709,-4.55,-9.078,37.778
79.740445,-6.51,-10.992,38.151
79.751181,-5.32,-13.64,38.253
79.761917,-1.05,-17.553,38.273
79.772653,3.99,-22.718,41.77
79.783389,6.16,-27.377,47.63
79.794125,4.55,-30.077,53.266
79.804861,-1.12,-31.933,58.554
79.815597,-11.06,-31.425,63.335
79.826333,-22.89,-29.426,67.313
79.837069,-35.77,-26.238,68.586
79.847805,-44.73,-23.112,67.786
79.858561,-49.28,-19.666,64.769
79.869317,-48.93,-16.52,58.216
79.880073,-47.46,-14.988,50.738
79.890829,-44.1,-14.482,45.852
79.901585,-43.61,-13.008,34.668
79.912341,-45.5,-12.029,16.218
79.923097,-44.17,-11.248,5.338
79.933853,-37.45,-10.482,3.412
79.944609,-29.4,-9.796,2.751
79.955365,-23.03,-8.803,-0.06
79.966121,-17.5,-7.997,-6.244
79.976877,-7.91,-7.162,-9.366
79.987634,4.06,-5.434,-3.446
79.998391,11.97,-3.219,3.342
80.009148,13.44,-1.67,1.411
80.019905,12.46,-0.455,-5.482
80.030662,14.77,2.253,-8.345
80.041419,18.34,4.751,-9.611
80.052176,21.56,6.178,-10.852
80.062933,23.45,5.988,-11.383
80.07369,23.52,5.023,-9.137
80.084447,24.08,4.464,-3.549
80.095204,24.85,3.699,4.419
80.105961,26.39,3.493,15.258
80.116718,28.63,4.777,28.137
80.127472,33.18,8.216,36.847
80.138226,39.62,11.441,39.121
80.14898,44.8,13.423,35.135
80.159734,47.74,13.361,29.437
80.170488,50.68,11.41,22.767
80.181242,52.43,7.735,15.793
80.191996,53.27,3.545,9.723
80.20275,52.92,0.272,5.308
80.213504,51.24,-2.165,0.187
80.224258,47.95,-4.048,-5.263
80.235012,44.52,-5.573,-10.721
80.245766,39.34,-7.249,-16.134
80.256504,34.93,-9.094,-20.582
80.267242,32.13,-11.402,-23.619
80.27798,30.59,-14.171,-24.036
80.288718,28.98,-16.678,-24.336
80.299456,25.48,-19.731,-25.158
80.310194,21.84,-23.794,-25.093
80.320932,18.06,-30.01,-22.493
80.33167,13.58,-39.866,-13.356
80.342408,9.1,-51.612,0.851
80.353146,3.99,-63.049,15.324
80.363884,-1.26,-72.601,26.363
80.374622,-5.81,-79.141,34.024
80.38536,-10.15,-78.621,35.111
80.396098,-13.79,-73.099,27.982
80.406806,-18.13,-65.766,16.622
80.417514,-22.12,-58.139,7.234
80.428222,-25.97,-52.22,3.089
80.43893,-29.68,-44.167,-2.67
80.449638,-30.87,-33.606,-18.223
80.460346,-26.95,-23.625,-35.725
80.471054,-19.32,-14.37,-48.309
80.481762,-14.84,-7.372,-58.164
80.49247,-15.33,-3.083,-66.364
80.503178,-17.01,0.274,-72.098
80.513886,-17.99,1.555,-72.512
80.524594,-15.89,1.84,-67.273
80.535286,-13.51,2.144,-62.954
80.545978,-10.15,2.206,-58.465
80.55667,-3.99,2.608,-52.281
80.567362,2.8,3.919,-46.008
80.578054,7.98,5.132,-39.184
80.588746,11.34,4.918,-31.119
80.599438,11.97,4.032,-22.461
80.61013,10.01,3.655,-15.491
80.620822,7.42,2.022,-11.869
80.631514,5.6,0.725,-8.544
80.642206,4.48,0.125,-5.949
80.652898,4.83,0.145,-5.661
80.663595,5.81,0.729,-6.553
80.674292,7.28,1.779,-8.074
80.684989,9.17,3.506,-9.404
80.695686,12.18,5.448,-12.758
80.706383,14.56,6.908,-14.988
80.71708,15.05,8.347,-12.673
80.727777,15.61,9.256,-10.167
80.738474,17.01,8.587,-8.792
80.749171,18.13,8.125,-6.173
80.759868,17.43,7.858,-2.239
80.770565,15.68,8.118,0.721
80.781262,14.07,7.948,1.686
80.79194,13.3,8.362,2.967
80.802618,14.63,8.561,3.855
80.813296,16.94,8.962,5.205
80.823974,17.22,9.007,5.355
80.834652,14.63,8.334,4.739
80.84533,8.89,7.076,3.807
80.856008,3.01,4.514,4.634
80.866686,-2.03,1.663,6.691
80.877364,-7.28,-1.086,7.77
80.888042,-12.11,-3.052,7.636
80.89872,-17.43,-5.1,7.559
80.909398,-22.96,-7.566,7.835
80.920076,-24.5,-8.778,9.47
80.930727,-23.45,-9.138,12.32
80.941378,-22.68,-8.205,14.688
80.952029,-21.77,-7.747,17.328
80.96268,-18.27,-7.292,21.602
80.973331,-15.75,-4.219,16.671
80.983982,-12.04,-1.41,5.58
80.994633,-11.06,1.217,5.19
81.005284,-6.44,4.664,7.006
81.015935,-0.28,4.928,5.916
81.026586,3.64,4.343,1.974
81.037237,3.43,1.614,-2.701
81.047888,3.78,-4.368,-4.253
81.058545,2.24,-11.464,-1.097
81.069202,-3.5,-18.945,-0.995
81.079859,-10.29,-25.564,-9.412
81.090516,-13.44,-29.896,-21.122
81.101173,-11.13,-31.389,-25.153
81.11183,-5.95,-29.159,-23.693
81.122487,0.28,-25.209,-26.338
81.133144,5.67,-20.871,-32.396
81.143801,9.03,-16.412,-36.728
81.154458,10.99,-11.96,-38.999
81.165115,11.41,-7.548,-40.638
81.175772,12.11,-2.735,-43.343
81.186445,14,1.413,-45.1
81.197118,16.94,5.622,-44.784
81.207791,20.16,9.219,-43.013
81.218464,24.92,18.457,-38.967
81.229137,26.6,23.258,-36.77
81.23981,28.7,28.559,-33.774
81.250483,29.89,32.634,-30.283
81.261156,30.1,35.619,-27.056
81.271829,29.61,38.487,-23.565
81.282502,28.56,40.571,-20.07
81.293175,26.74,41.606,-17.471
81.303848,24.5,42.32,-15.07
81.314563,22.47,42.491,-12.41
81.325278,20.44,40.986,-10.33
81.335993,19.11,38.639,-9.109
81.346708,17.64,36.453,-8.002
81.357423,15.89,34.101,-7.563
81.368138,15.33,31.393,-5.908
81.378853,13.79,28.976,-3.491
81.389568,11.41,26.949,-2.072
81.400283,9.38,25.218,-1.524
81.410998,6.79,22.886,-0.798
81.421713,6.37,21.366,0.569
81.432428,6.3,19.712,1.485
81.443188,6.3,17.582,0.257
81.453948,6.37,16.325,-3.092
81.464708,6.37,15.416,-6.806
81.475468,6.86,16.02,-8.619
81.486228,7.28,15.594,-8.623
81.496988,7.56,12.744,-5.358
81.507748,6.02,9.926,-3.083
81.518508,4.34,6.706,-5.783
81.529268,3.36,2.092,-3.398
81.540028,1.96,-1.512,4.14
81.550788,1.26,-3.961,8.755
81.561548,0.91,-5.81,5.941
81.572365,4.2,-5.62,1.639
81.583182,11.27,-5.543,-1.617
81.593999,16.17,-4.716,-2.68
81.604816,15.54,-3.342,-3.219
81.615633,11.48,-3.756,-4.501
81.62645,7.77,-5.568,-3.896
81.637267,6.44,-8.041,0.857
81.648084,7.63,-9.906,5.788
81.658901,10.64,-10.745,8.128
81.669718,11.69,-11.544,7.418
81.680535,10.36,-11.734,5.679
81.691352,7.56,-11.297,4.405
81.702218,6.79,-10.571,3.112
81.713084,4.76,-9.055,0.962
81.72395,3.15,-6.472,-1.994
81.734816,1.47,-4.092,-5.413
81.745682,2.31,-2.483,-8.896
81.756548,1.47,-2.175,-11.045
81.767414,0.07,-1.835,-12.976
81.77828,-0.7,-1.555,-14.561
81.789146,-0.35,0.115,-15.973
81.800012,-0.49,2.747,-16.788
81.810878,0.49,4.726,-17.932
81.821744,2.17,5.228,-18.767
81.832614,1.96,5.099,-17.226
81.843484,-0.42,5.314,-16.833
81.854354,-3.5,6.826,-19.765
81.865224,-4.34,7.929,-21.987
81.876094,-4.2,7.422,-20.726
81.886964,-2.94,5.261,-16.131
81.897834,-0.35,2.942,-10.641
81.908704,4.48,1.787,-6.509
81.919574,7.35,1.918,-3.216
81.930444,8.12,1.889,-1.444
81.941314,6.23,1.067,0.401
81.952184,2.8,0.645,1.18
81.963054,0.56,1.196,1.277
81.97392,0.35,2.287,0.332
81.984786,0.91,3.589,-1.002
81.995652,1.61,3.714,-2.117
82.006518,3.22,1.699,-0.767
82.017384,4.27,-1.115,1.083
82.02825,4.06,-3.499,2.511
82.039116,3.22,-5.328,3.61
82.049982,3.22,-6.483,4.117
82.060848,2.59,-7.631,4.981
82.071714,1.05,-7.992,5.415
82.08258,-0.63,-8.584,4.741
82.093446,-2.17,-8.848,3.416
82.104297,-3.71,-9.671,2.844
82.115148,-5.88,-11.548,4.219
82.125999,-7.7,-12.18,7.803
82.13685,-8.61,-13.201,11.177
82.147701,-10.36,-14.11,12.297
82.158552,-11.13,-15.193,9.973
82.169403,-13.23,-17.805,5.035
82.180254,-15.12,-18.649,0.55
82.191105,-16.73,-17.709,-2.767
82.201956,-17.78,-15.584,-5.947
82.212807,-17.92,-13.752,-7.471
82.223658,-19.74,-13.082,-6.429
82.234509,-23.59,-11.776,-4.564
82.245346,-28.35,-9.522,-4.451
82.256183,-30.31,-5.771,-5.567
82.26702,-28.77,-2.852,-6.402
82.277857,-26.88,-1.448,-5.089
82.288694,-27.37,-1.095,-3.463
82.299531,-29.33,-0.057,-2.498
82.310368,-30.24,2.887,-2.263
82.321205,-32.2,4.338,-3.642
82.332042,-33.81,3.057,-3.228
82.342879,-34.02,0.754,-4.274
82.353716,-32.34,-0.492,-6.484
82.364553,-30.03,0.015,-7.745
82.375396,-21.07,-2.393,-4.971
82.386239,-16.87,-5.182,-0.843
82.397082,-13.72,-6.853,1.777
82.407925,-12.04,-6.771,2.929
82.418768,-10.36,-6.873,2.698
82.429611,-8.75,-9.269,2.986
82.440454,-5.46,-14.277,4.377
82.451297,-3.29,-17.809,5.46
82.46214,-1.89,-16.698,6.012
82.472983,-0.35,-12.022,5.699
82.483826,0.56,-8.628,7.008
82.494669,0.14,-7.776,10.641
82.505534,-0.84,-7.2,13.018
82.516399,-1.33,-4.746,14.019
82.527264,-0.42,-1.328,15.19
82.538129,1.05,1.442,16.816
82.548994,3.22,3.762,19.784
82.559859,5.18,6.892,20.976
82.570724,6.72,11.547,20.375
82.581589,9.73,18.733,18.727
82.592454,12.04,26.035,16.816
82.603319,11.83,31.834,15.778
82.614184,10.71,34.591,15.055
82.625049,9.52,33.901,12.517
82.635914,8.75,32.518,9.075
82.64679,8.68,30.713,5.202
82.657666,8.33,28.689,2.571
82.668542,7.35,24.922,0.556
82.679418,4.83,20.469,-0.798
82.690294,1.12,18.211,-1.693
82.70117,-0.42,16.885,-2.638
82.712046,-0.21,15.044,-2.678
82.722922,-1.61,10.713,-1.096
82.733798,-3.29,5.863,-0.601
82.744674,-5.67,4.639,-2.523
82.75555,-6.65,5.956,-6.769
82.766434,-5.95,8.161,-8.796
82.777318,-4.9,8.352,-8.265
82.788202,-4.76,6.807,-7.969
82.799086,-5.81,5.493,-8.983
82.80997,-7.77,6.361,-10.678
82.820854,-9.59,8.514,-10.796
82.831738,-10.78,10.647,-7.576
82.842622,-11.2,12.323,-3.371
82.853506,-11.97,12.437,-0.792
82.86439,-12.95,10.632,0.169
82.875274,-13.37,8.852,-0.216
82.886158,-12.6,6.674,-1.169
82.897061,-9.73,3.467,-1.521
82.907964,-7.35,-0.061,-2.072
82.918867,-6.51,-3.524,-2.185
82.92977,-6.3,-6.322,-2.039
82.940673,-8.05,-7.904,-2.744
82.951576,-8.12,-8.885,-3.628
82.962479,-8.19,-9.579,-4.532
82.973382,-8.89,-9.822,-5.57
82.984285,-10.29,-9.818,-5.996
82.995188,-12.04,-9.4,-6.349
83.006091,-14.35,-8.411,-6.317
83.016994,-16.1,-7.592,-6.527
83.027878,-17.29,-7.482,-5.94
83.038762,-18.34,-6.797,-5.392
83.049646,-18.48,-6.079,-4.626
83.06053,-17.29,-6.647,-3.02
83.071414,-16.45,-9.286,-0.145
83.082298,-16.87,-12.663,2.885
83.093182,-17.5,-15.595,3.79
83.104066,-17.5,-17.497,2.886
83.11495,-17.29,-18.815,2.298
83.125834,-17.43,-20.404,3.652
83.136718,-18.34,-22.018,6.353
83.147602,-20.3,-22.155,7.537
83.158486,-22.12,-21.105,6.016
83.169329,-23.03,-18.989,3.689
83.180172,-23.17,-17.996,3.295
83.191015,-22.19,-18.06,5.274
83.201858,-21.35,-17.168,7.066
83.212701,-21.14,-14.873,7.755
83.223544,-19.88,-12.225,7.653
83.234387,-18.62,-11.146,7.986
83.24523,-17.85,-11.369,8.444
83.256073,-17.99,-12.054,7.897
83.266916,-18.13,-11.021,5.662
83.277759,-17.78,-9.403,3.744
83.288602,-17.64,-8.004,3.067
83.299397,-17.78,-7.157,3.5
83.310192,-18.41,-6.767,3.711
83.320987,-18.13,-5.831,3.237
83.331782,-17.57,-5.028,3.52
83.342577,-17.22,-4.375,3.849
83.353372,-17.99,-4.111,3.966
83.364167,-19.46,-4.375,3.849
83.374962,-21.07,-5.352,2.539
83.385757,-21.98,-6.61,0.398
83.396552,-22.54,-8.374,-1.69
83.407347,-23.03,-10.872,-1.633
83.418142,-24.57,-12.964,-0.651
83.428918,-27.16,-15.616,-2.54
83.439694,-26.74,-15.754,-3.773
83.45047,-25.34,-15.531,-3.023
83.461246,-24.43,-15.936,-1.531
83.472022,-24.08,-16.394,-0.545
83.482798,-23.03,-16.175,-0.578
83.493574,-21.49,-14.931,-1.993
83.50435,-19.67,-13.998,-3.25
83.515126,-18.06,-13.942,-3.169
83.525902,-17.92,-14.57,-2.427
83.536678,-17.01,-15.048,-1.729
83.547454,-16.24,-14.955,-1.855
83.55822,-14.98,-15.036,-1.798
83.568986,-14.42,-16.22,-0.728
83.579752,-13.58,-18.523,0.643
83.590518,-13.65,-20.295,1.824
83.601284,-14.07,-19.537,1.957
83.61205,-14.63,-16.751,0.671
83.622816,-14.56,-14.89,-0.209
83.633582,-14.56,-14.541,0.635
83.644348,-14.14,-14.792,1.656
83.655114,-13.86,-14.837,1.506
83.66588,-13.86,-15.21,0.801
83.676646,-14.21,-15.32,0.213
83.68741,-14.07,-15.226,1.296
83.698174,-14.28,-14.881,2.565
83.708938,-14.14,-14.537,3.834
83.719702,-13.16,-14.216,4.033
83.730466,-12.32,-13.434,4.028
83.74123,-11.27,-11.877,3.663
83.751994,-9.87,-9.979,3.785
83.762758,-9.45,-8.981,5.382
83.773522,-9.38,-8.506,7.527
83.784286,-9.94,-8.433,9.53
83.79505,-10.43,-8.388,10.889
83.805814,-11.13,-8.421,10.67
83.816585,-13.16,-9.167,10.467
83.827356,-14.63,-10.047,11.023
83.838127,-16.73,-11.616,11.457
83.848898,-19.88,-14.077,11.307
83.859669,-22.61,-15.594,11.04
83.87044,-24.78,-15.663,9.819
83.881211,-26.25,-14.929,8.883
83.891982,-27.09,-14.674,8.643
83.902753,-26.53,-14.179,8.659
83.913524,-25.34,-13.384,8.586
83.924295,-24.78,-12.63,7.937
83.935066,-24.64,-11.872,6.863
83.945847,-24.99,-11.467,5.37
83.956628,-24.64,-10.64,4.308
83.967409,-24.36,-9.975,3.359
83.97819,-23.59,-10.332,3.367
83.988971,-22.54,-11.763,3.825
83.999752,-21.07,-12.456,4.13
84.010533,-20.65,-12.619,4.243
84.021314,-20.72,-12.112,2.982
84.032095,-21.07,-12.12,1.417
84.042876,-22.68,-13.604,0.16
84.053657,-23.8,-15.389,0.201
84.064438,-25.2,-18.097,0.647
84.075198,-25.48,-19.671,1.507
84.085958,-26.53,-20.469,2.006
84.096718,-26.25,-20.417,2.513
84.107478,-26.53,-19.622,2.44
84.118238,-25.48,-18.409,2.014
84.128998,-25.27,-17.339,0.781
84.139758,-24.78,-16.094,0.574
84.150518,-24.57,-14.14,0.776
84.161278,-24.92,-12.047,1.003
84.172038,-24.92,-9.42,0.614
84.182798,-24.22,-6.995,-0.238
84.193558,-22.96,-5.109,-1.256
84.204318,-22.47,-4.518,-3
84.21505,-23.8,-4.368,-4.253
84.225782,-25.9,-5.207,-4.33
84.236514,-26.95,-6.756,-3.608
84.247246,-27.44,-7.932,-3.389
84.257978,-26.67,-8.666,-3.66
84.26871,-25.62,-9.173,-3.608
84.279442,-23.59,-9.461,-3.587
84.290174,-21.42,-9.733,-4.062
84.300906,-21.28,-9.432,-4.151
84.311638,-20.58,-9.197,-3.47
84.32237,-19.67,-8.508,-3.348
84.333102,-18.9,-7.076,-3.807
84.34383,-18.48,-6.286,-3.454
84.354558,-18.48,-6.119,-2.785
84.365286,-18.48,-6.095,-1.714
84.376014,-18.97,-5.734,-0.94
84.386742,-19.88,-5.454,-0.109
84.39747,-21.42,-4.513,0.199
84.408198,-21.63,-3.933,-0.267
84.418926,-21.63,-3.013,-0.247
84.429654,-20.72,-2.798,0.146
84.440382,-20.16,-3.264,0.775
84.45111,-19.88,-3.544,1.152
84.461838,-19.95,-3.844,1.241
84.472555,-19.11,-3.621,0.783
84.483272,-17.43,-3.228,0.568
84.493989,-15.89,-3.353,0.475
84.504706,-14.07,-4.087,0.203
84.515423,-12.88,-5.551,0.443
84.52614,-12.18,-6.853,0.569
84.536857,-11.41,-8.694,0.528
84.547574,-10.36,-10.381,0.018
84.558291,-10.15,-12.493,-0.497
84.569008,-9.8,-14.217,-0.801
84.579725,-10.15,-16.342,-1.247
84.590442,-10.57,-18.159,-2.633
84.601159,-10.85,-19.379,-3.772
84.611864,-11.76,-20.272,-4.356
84.622569,-12.25,-20.495,-5.106
84.633274,-12.46,-20.041,-5.666
84.643979,-13.09,-18.938,-6.68
84.654684,-13.72,-18.127,-7.248
84.665389,-14.14,-17.154,-6.721
84.676094,-14.49,-16.509,-5.541
84.686799,-14.98,-16.508,-4.332
84.697504,-14.98,-16.281,-2.8
84.708209,-14,-16.066,-2.406
84.718914,-12.6,-16.082,-1.912
84.729619,-11.34,-15.64,-1.194
84.740335,-10.01,-15.251,-0.983
84.751051,-8.96,-15.527,-1.032
84.761767,-8.68,-15.965,-0.967
84.772483,-7.7,-15.681,-0.561
84.783199,-7,-15.462,0.614
84.793915,-6.79,-14.76,1.875
84.804631,-6.37,-13.746,2.978
84.815347,-7,-13.105,3.376
84.826063,-7.77,-12.497,3.554
84.836779,-8.47,-12.302,3.659
84.847495,-8.4,-12.517,3.266
84.858211,-7.56,-12.254,3.384
84.868927,-6.65,-12.351,3.935
84.879643,-6.3,-12.525,4.118
84.890359,-5.11,-12.692,3.449
84.901075,-5.18,-13.373,2.475
84.911791,-4.97,-13.884,1.746
84.922507,-4.27,-13.831,1.044
84.933223,-3.85,-13.446,0.472
84.943939,-3.01,-13.142,-0.043
84.954655,-2.38,-12.907,-0.57
84.965371,-2.24,-13.167,-1.113
84.976087,-2.94,-13.228,-1.977
84.986803,-3.85,-13.43,-2.439
84.997519,-4.41,-13.398,-2.22
85.008241,-4.69,-12.94,-1.997
85.018963,-4.76,-12.417,-1.336
85.029685,-4.62,-12.169,-0.724
85.040407,-3.92,-12.222,-0.023
85.051129,-3.22,-12.161,0.841
85.061851,-3.15,-12.193,1.83
85.072573,-2.59,-12.035,2.143
85.083295,-1.19,-11.512,2.804
85.094017,0.07,-10.936,2.763
85.104739,0.28,-10.178,2.897
85.115461,-1.33,-9.614,2.925
85.126183,-4.34,-8.154,3.111
85.136882,-6.16,-6.54,4.036
85.147581,-6.37,-6.256,5.649
85.15828,-4.48,-6.507,7.88
85.168979,-2.45,-7.188,9.323
85.179678,-1.47,-7.955,8.833
85.190377,-0.91,-8.908,7.385
85.201076,-0.56,-9.983,5.419
85.211775,-0.49,-10.437,4.77
85.222474,-0.84,-10.696,4.227
85.233173,-0.63,-10.688,3.375
85.243872,-1.12,-11.24,2.07
85.254571,-1.19,-11.289,1.137
85.26527,-0.84,-10.535,0.488
85.275948,-0.56,-10.255,0.111
85.286626,-0.56,-9.833,0.541
85.297304,-0.77,-9.043,0.893
85.307982,-0.84,-8.446,1.141
85.31866,-1.4,-7.895,1.238
85.329338,-0.98,-7.895,1.238
85.340016,-1.12,-8.179,0.832
85.350694,-1.82,-8.256,0.463
85.361372,-1.89,-8.321,0.025
85.37205,-2.24,-8.134,-0.226
85.382728,-1.61,-7.984,-0.271
85.393406,-0.07,-7.514,-0.117
85.404084,0.07,-7.559,-0.267
85.41474,-0.07,-7.352,-0.23
85.425396,-0.14,-6.512,-0.153
85.436052,0.14,-5.628,0.074
85.446708,-0.14,-4.396,-0.064
85.457364,-1.12,-3.009,0.536
85.46802,-1.47,-1.322,1.046
85.478676,-2.52,-0.069,2.405
85.489332,-3.22,1.331,4.144
85.499988,-4.2,2.807,5.044
85.510644,-5.04,3.715,6.341
85.5213,-4.62,3.829,7.712
85.531956,-3.64,3.342,8.053
85.54259,-3.08,2.223,7.145
85.553224,-2.52,0.751,5.819
85.563858,-2.59,-0.486,3.966
85.574492,-2.38,-1.792,2.101
85.585126,-2.45,-3.487,1.233
85.59576,-1.89,-5.219,0.572
85.606394,-0.35,-6.334,0.447
85.617028,0.77,-7.494,0.171
85.627662,1.89,-8.325,-0.757
85.638296,2.52,-9.351,-1.791
85.64893,2.17,-9.554,-2.253
85.659564,2.45,-9.578,-3.324
85.670198,2.17,-9.712,-3.774
85.680845,2.17,-10.219,-3.721
85.691492,2.45,-10.499,-3.344
85.702139,2.24,-10.697,-3.024
85.712786,1.96,-10.349,-3.389
85.723433,2.1,-10.093,-3.628
85.73408,2.45,-9.538,-3.956
85.744727,3.01,-9.145,-4.171
85.755374,3.29,-9.412,-3.863
85.766021,3.36,-9.238,-2.837
85.776668,4.13,-8.633,-2.233
85.787315,4.69,-7.891,-1.605
85.797939,4.97,-7.522,-1.682
85.808563,4.76,-7.498,-1.82
85.819187,4.83,-7.688,-1.142
85.829811,4.97,-7.98,-0.696
85.840435,4.9,-8.84,-1.061
85.851059,5.46,-9.173,-1.191
85.861683,6.23,-9.809,-0.806
85.872307,6.58,-10.782,-0.124
85.882931,7,-11.163,0.022
85.893555,7.21,-11.277,-0.14
85.904179,7.42,-11.808,0.05
85.914803,7.35,-12.745,0.525
85.925427,6.86,-13.503,1.6
85.936038,7.42,-13.215,2.788
85.946649,6.79,-12.302,3.659
85.95726,6.65,-11.293,3.98
85.967871,7,-9.545,4.146
85.978482,6.93,-7.988,3.78
85.989093,7,-7.007,3.456
85.999704,7,-7.011,2.673
86.010315,7.42,-6.127,2.9
86.020926,8.05,-6.082,3.05
86.031537,9.31,-5.892,2.373
86.042148,10.5,-5.405,2.032
86.052759,11.69,-4.983,1.254
86.06338,12.25,-4.173,-0.523
86.074001,12.53,-2.94,-3.077
86.084622,12.95,-1.302,-5.916
86.095243,13.58,0.238,-8.203
86.105864,13.79,1.013,-8.564
86.116485,13.37,1.702,-7.234
86.127106,12.11,1.625,-5.187
86.137727,10.5,2.287,-3.293
86.148348,8.89,3.378,-1.821
86.158969,7.42,4.245,-1.099
86.16959,6.09,5.486,-0.881
86.180211,5.25,6.784,-0.581
86.190866,4.2,8.025,-0.362
86.201521,2.8,7.875,-0.317
86.212176,1.68,8.378,0.056
86.222831,0.21,8.511,0.506
86.233486,-0.7,8.556,0.656
86.244141,-1.4,7.818,0.81
86.254796,-1.82,8.126,1.077
86.265451,-3.5,7.867,1.743
86.276106,-4.27,8.005,1.767
86.286761,-4.27,8.394,1.978
86.297416,-4.34,8.889,1.994
86.308071,-4.55,9.615,1.909
86.318719,-5.11,10.077,1.706
86.329367,-4.62,11.074,2.095
86.340015,-5.39,12.327,2.245
86.350663,-6.23,14.343,2.103
86.361311,-6.16,17.558,1.603
86.371959,-7.14,21.905,0.735
86.382607,-7.7,29.026,-0.142
86.393255,-8.96,39.508,-1.137
86.403903,-10.57,53.752,-4.525
86.414551,-11.97,70.373,-10.906
86.425199,-13.3,86.142,-18.503
86.435847,-14.7,98.513,-23.358
86.446495,-16.87,106.497,-23.088
86.457148,-19.6,110.986,-20.732
86.467801,-21.56,113.006,-20.092
86.478454,-21.84,113.289,-20.895
86.489107,-20.93,111.712,-22.026
86.49976,-19.46,108.002,-22.751
86.510413,-18.27,102.398,-22.815
86.521066,-16.73,95.82,-22.198
86.531719,-15.82,89.008,-21.054
86.542372,-14.84,82.269,-20.323
86.553025,-15.19,75.866,-19.888
86.563678,-16.17,70.278,-20.447
86.574331,-16.1,65.007,-20.381
86.585002,-16.17,60.031,-19.979
86.595673,-15.89,55.141,-18.851
86.606344,-15.89,50.482,-17.825
86.617015,-16.03,46.354,-16.989
86.627686,-15.54,42.932,-17.734
86.638357,-15.05,39.485,-18.342
86.649028,-14.42,36.594,-18.07
86.659699,-13.3,33.179,-18.459
86.67037,-12.46,30.146,-18.994
86.681041,-10.85,26.995,-19.265
86.691712,-9.94,24.319,-19.808
86.702383,-8.96,22.332,-20.229
86.713083,-9.03,20.215,-21.527
86.723783,-10.08,18.107,-21.259
86.734483,-11.62,15.856,-20.589
86.745183,-12.67,14.279,-20.512
86.755883,-14.63,12.892,-19.904
86.766583,-15.4,12.389,-19.068
86.777283,-16.17,11.311,-18.192
86.787983,-17.08,10.504,-16.842
86.798683,-17.85,9.645,-15.998
86.809383,-17.64,8.323,-14.952
86.820083,-16.73,7.074,-14.319
86.830783,-15.82,5.768,-13.767
86.841528,-15.12,4.86,-12.648
86.852273,-15.26,4.272,-11.33
86.863018,-14.7,3.121,-10.041
86.873763,-13.79,1.507,-9.757
86.884508,-13.44,0.595,-9.42
86.895253,-13.58,-0.208,-8.495
86.905998,-14.21,-0.528,-7.485
86.916743,-15.33,-0.954,-7.489
86.927488,-16.87,-1.688,-7.761
86.938233,-18.41,-1.765,-8.13
86.948978,-20.86,-2.312,-7.445
86.959723,-24.01,-2.791,-6.747
86.970482,-26.32,-3.176,-6.175
86.981241,-29.47,-3.764,-6.066
86.992,-33.11,-4.664,-5.798
87.002759,-36.54,-5.978,-5.603
87.013518,-38.78,-7.044,-6.004
87.024277,-41.09,-7.701,-5.907
87.035036,-43.68,-7.754,-5.206
87.045795,-46.27,-8.674,-4.017
87.056554,-48.93,-9.55,-2.679
87.067313,-51.59,-9.404,-2.298
87.078072,-53.34,-7.899,-1.962
87.088831,-54.88,-5.847,-1.102
87.09959,-56.84,-4.213,0.11
87.110373,-60.06,-2.915,1.618
87.121156,-63.35,-1.334,3.532
87.131939,-65.24,1.209,6.042
87.142722,-64.54,5.005,7.493
87.153505,-62.79,6.66,8.993
87.164288,-59.85,5.845,11.195
87.175071,-56.84,4.608,14.176
87.185854,-53.62,4.467,15.785
87.196637,-49.14,6.202,16.02
87.20742,-43.82,8.753,15.262
87.218203,-38.36,10.427,13.425
87.228986,-34.86,11.412,11.466
87.239763,-31.01,11.781,8.972
87.25054,-27.51,12.425,5.318
87.261317,-24.36,13.901,1.385
87.272094,-21.7,15.368,-1.697
87.282871,-19.74,16.467,-3.494
87.293648,-18.13,17.209,-5.282
87.304425,-17.08,18.165,-6.677
87.315202,-15.82,19.199,-7.703
87.325979,-15.19,20.598,-8.38
87.336756,-14.63,22.001,-9.484
87.347533,-13.72,23.363,-9.954
87.35831,-12.81,23.177,-10.911
87.369087,-12.32,22.191,-11.369
87.379853,-11.48,20.391,-12.042
87.390619,-9.87,17.933,-12.618
87.401385,-8.47,15.188,-11.964
87.412151,-7.7,12.472,-10.666
87.422917,-6.93,9.532,-8.91
87.433683,-6.44,7.269,-8.172
87.444449,-5.95,5.023,-7.928
87.455215,-4.97,3.069,-6.922
87.465981,-4.13,1.313,-6.237
87.476747,-3.85,0.356,-6.05
87.487513,-3.92,-0.966,-5.004
87.498279,-3.43,-1.683,-3.353
87.509015,-3.43,-1.979,-1.273
87.519751,-2.8,-1.934,0.085
87.530487,-1.89,-1.216,0.852
87.541223,-1.75,-0.381,1.354
87.551959,-1.75,0.536,1.8
87.562695,-1.75,1.578,1.131
87.573431,-0.35,2.607,0.531
87.584167,-0.35,4.031,-0.284
87.594903,-0.14,5.101,-0.309
87.605639,0.07,5.892,0.044
87.616375,0.63,6.537,0.015
87.627111,0.98,6.743,0.052
87.637847,1.54,6.687,-0.029
87.648561,2.24,7.177,0.413
87.659275,2.73,7.794,0.948
87.669989,2.87,8.487,1.852
87.680703,3.29,9.773,2.221
87.691417,4.41,10.795,2.472
87.702131,3.99,10.908,2.634
87.712845,4.83,11.083,3.66
87.723559,4.97,11.16,4.029
87.734273,4.41,11.241,3.972
87.744987,4.55,11.253,3.903
87.755701,4.9,11.265,5.043
87.766415,4.76,10.248,5.574
87.777129,4.83,9.919,6.227
87.787843,4.9,9.023,6.069
87.798557,5.39,7.774,6.702
87.809271,5.74,6.619,7.209
87.819985,5.81,6.031,7.318
87.830699,6.37,6.359,6.666
87.841413,5.95,6.189,5.214
87.852127,5.95,6.184,4.431
87.862841,5.53,6.33,3.604
87.873555,5.32,6.371,2.971
87.884269,5.11,5.483,1.962
87.894983,4.55,4.74,1.333
87.905691,3.85,4.157,1.017
87.916399,3.64,3.106,1.33
87.927107,3.43,2.478,0.863
87.937815,3.64,1.732,0.661
87.948523,3.99,0.836,1.711
87.959231,4.13,0.122,1.727
87.969939,4.41,-0.726,1.294
87.980647,4.34,-1.488,1.586
87.991355,3.92,-2.1,1.833
88.002063,3.15,-1.614,1.492
88.012771,2.59,-1.33,0.69
88.023479,3.71,-2.125,0.763
88.034187,6.3,-3.41,1.602
88.044895,8.19,-3.832,1.172
88.055603,9.8,-4.14,-0.304
88.066311,11.13,-4.392,-1.698
88.077019,11.55,-3.8,-2.234
88.087727,11.62,-3.001,-2.733
88.098435,11.13,-2.158,-1.873
88.109143,11.06,-0.981,-0.884
88.119851,11.48,-0.345,-0.061
88.130559,11.69,0.471,1.362
88.141267,11.48,1.229,2.705
88.151975,12.11,1.189,4.545
88.162683,12.53,1.023,6.293
88.173363,13.09,0.338,8.163
88.184043,13.93,0.017,9.172
88.194723,15.26,-0.631,9.627
88.205403,16.45,-1.28,10.081
88.216083,17.15,-1.616,10.377
88.226763,17.78,-1.892,10.328
88.237443,17.85,-2.505,10.576
88.248123,18.55,-3.02,10.272
88.258803,18.83,-3.389,10.349
88.269483,19.46,-3.612,9.599
88.280163,20.23,-3.673,8.735
88.290843,21.56,-3.867,7.421
88.301523,22.47,-4.662,6.286
88.312171,20.79,-6.094,6.744
88.322819,18.13,-7.691,7.742
88.333467,15.75,-8.944,8.801
88.344115,14.21,-9.455,9.279
88.354763,13.3,-9.268,9.028
88.365411,13.58,-8.157,8.371
88.376059,13.51,-7.464,8.066
88.386707,12.6,-6.467,8.456
88.397355,10.5,-4.735,9.116
88.408003,7.49,-3.413,10.487
88.418651,5.18,-2.845,11.298
88.429299,2.03,-1.649,10.158
88.439947,0.07,0.196,9.773
88.450565,-1.12,2.629,8.069
88.461183,-2.24,5.414,6.783
88.471801,-2.66,7.839,4.723
88.482419,-2.8,9.307,2.849
88.493037,-1.33,9.526,2.817
88.503655,-0.42,9.266,3.482
88.514273,0.7,8.459,3.624
88.524891,1.47,7.948,2.894
88.535509,3.36,7.575,2.189
88.546127,4.48,7.587,2.12
88.556745,6.09,7.425,2.233
88.567363,7.77,6.849,2.274
88.577975,9.24,6.269,2.74
88.588587,11.41,5.823,3.657
88.599199,12.46,4.303,5.024
88.609811,12.32,2.077,6.763
88.620423,11.9,0.431,8.037
88.631035,11.06,-0.072,8.872
88.641647,10.15,-0.538,8.293
88.652259,8.82,-0.668,6.208
88.662871,7.42,0.236,5.515
88.673483,6.16,0.759,4.967
88.684095,5.32,1.46,3.811
88.694707,4.13,1.574,2.765
88.705322,3.78,2.105,1.366
88.715937,3.36,2.133,0.803
88.726552,2.31,1.273,0.438
88.737167,3.57,0.049,-0.276
88.747782,4.41,-0.896,-0.158
88.758397,5.32,-1.245,0.207
88.769012,5.6,-1.59,0.146
88.779627,4.97,-1.979,-0.065
88.790242,4.41,-2.06,-0.008
88.800857,3.85,-1.687,-0.511
88.811472,3.08,-1.557,-0.843
88.822087,2.52,-1.192,-0.495
88.832702,1.82,-0.969,0.256
88.843333,1.54,-1.455,1.805
88.853964,-1.54,-2.173,5.872
88.864595,-5.04,-4.025,8.317
88.875226,-8.89,-5.327,10.86
88.885857,-13.37,-5.557,15.795
88.896488,-18.48,-5.074,18.297
88.907119,-20.16,-3.967,16.857
88.91775,-17.99,-2.95,15.117
88.928381,-12.67,-1.251,14.351
88.939012,-6.79,0.197,13.398
88.949643,-1.05,3.306,11.885
88.960274,3.78,5.187,7.667
88.970922,6.86,6.335,4.387
88.98157,8.89,7.997,3.827
88.992218,8.96,8.398,2.76
89.002866,8.96,8.848,0.21
89.013514,8.82,9.456,-0.82
89.024162,9.38,9.866,-1.53
89.03481,9.45,9.472,-2.524
89.045458,9.59,8.361,-3.075
89.056106,9.66,7.23,-2.706
89.066754,10.08,6.52,-1.907
89.077402,10.43,5.717,-2.19
89.08805,11.13,4.736,-1.866
89.098698,10.64,3.901,-1.16
89.10938,9.52,2.863,-0.917
89.120062,8.33,1.387,-0.608
89.130744,7.14,0.762,-0.292
89.141426,7.28,0.109,-0.62
89.152108,7.91,-0.819,0.211
89.16279,10.57,-1.707,0.41
89.173472,13.79,-3.929,0.516
89.184154,18.13,-6.784,2.998
89.194836,20.79,-10.846,6.688
89.205518,23.52,-15.667,10.245
89.2162,26.81,-21.672,13.664
89.226882,29.47,-27.142,17.675
89.237577,30.1,-30.406,19.659
89.248272,28.28,-30.99,18.134
89.258967,24.5,-28.659,13.783
89.269662,18.55,-25.075,8.373
89.280357,12.95,-20.546,4.054
89.291052,10.22,-16.495,1.641
89.301747,9.59,-13.629,1.506
89.312442,9.8,-11.037,2.532
89.323137,9.38,-9.5,3.087
89.333832,8.96,-8.41,3.351
89.344527,8.89,-7.408,3.314
89.355222,8.75,-7.307,3.545
89.365917,8.89,-7.019,3.525
89.376621,9.17,-6.309,3.934
89.387325,8.96,-6.354,3.784
89.398029,8.61,-6.001,2.993
89.408733,8.05,-6.269,2.093
89.419437,7.21,-6.642,1.388
89.430141,6.58,-7.575,1.437
89.440845,6.02,-8.252,1.246
89.451549,6.09,-8.033,1.214
89.462253,5.46,-7.072,0.601
89.472957,4.34,-5.973,0.013
89.483661,2.73,-4.363,0.155
89.494365,-0.14,-2.579,-1.094
89.50509,-3.36,-1.241,-2.636
89.515815,-5.53,-0.151,-3.581
89.52654,-7.28,0.454,-4.185
89.537265,-7.35,0.591,-4.161
89.54799,-5.88,0.263,-4.716
89.558715,-4.34,-1.375,-4.294
89.56944,-3.99,-3.577,-3.9
89.580165,-3.36,-6.079,-3.418
89.59089,-2.52,-8.062,-3.056
89.601615,-1.75,-9.87,-4.086
89.61234,-1.54,-11.286,-5.331
89.623065,-0.49,-11.391,-6.344
89.633816,1.26,-11.258,-7.103
89.644567,2.38,-11.371,-7.265
89.655318,2.87,-11.379,-6.413
89.666069,2.17,-11.144,-5.732
89.67682,1.33,-10.856,-4.544
89.687571,1.26,-10.43,-3.332
89.698322,0.91,-9.578,-2.115
89.709073,0.98,-9.197,-1.053
89.719824,0.7,-8.548,-0.299
89.730575,0.07,-7.631,0.147
89.741326,-0.63,-7.137,0.163
89.752077,-1.75,-6.541,0.41
89.762816,-3.15,-6.232,0.678
89.773555,-4.69,-6.086,1.059
89.784294,-6.09,-6.017,1.071
89.795033,-7.28,-6.297,1.449
89.805772,-7.07,-6.97,2.041
89.816511,-6.44,-8.389,2.43
89.82725,-4.76,-9.496,2.661
89.837989,-3.71,-9.971,2.933
89.848728,-2.94,-10.178,2.897
89.859467,-2.59,-10.117,2.552
89.870206,-2.94,-10.194,2.183
89.880945,-3.22,-10.04,1.713
89.891684,-3.29,-10.66,1.603
89.90241,-2.52,-12.104,2.131
89.913136,-1.19,-12.728,2.447
89.923862,0,-13.328,2.625
89.934588,1.4,-14.573,2.832
89.945314,1.75,-16.276,2.816
89.95604,2.59,-18.867,4.208
89.966766,3.36,-21.985,6.572
89.977492,4.76,-24.56,8.677
89.988218,4.97,-26.474,10.259
89.998944,4.83,-28.047,11.119
90.00967,3.85,-29.434,11.727
90.020396,3.01,-30.711,12.923
90.03113,3.99,-31.85,14.144
90.041864,6.44,-33.391,15.223
90.052598,9.38,-33.756,16.083
90.063332,12.18,-34.116,16.517
90.074066,12.25,-33.135,16.192
90.0848,10.08,-31.428,14.574
90.095534,6.3,-29.247,11.476
90.106268,1.96,-27.419,9.168
90.117002,-1.54,-25.448,7.667
90.127736,-3.78,-24.52,6.836
90.13847,-5.67,-24.828,6.568
90.149204,-5.18,-24.945,6.832
90.159938,-5.04,-24.852,6.706
90.170651,-4.48,-24.613,5.753
90.181364,-3.15,-24.171,5.263
90.192077,-2.17,-23.384,4.833
90.20279,-1.75,-23.222,4.719
90.213503,-0.63,-23.636,4.646
90.224216,-0.49,-24.041,4.93
90.234929,0,-24.175,5.688
90.245642,0.21,-23.83,5.749
90.256355,1.19,-23.636,5.855
90.267068,2.24,-23.287,5.49
90.277781,3.71,-22.902,4.918
90.288494,5.04,-21.844,3.754
90.299208,5.53,-19.983,1.665
90.309922,5.32,-18.316,-0.529
90.320636,5.04,-17.368,-2.281
90.33135,5.39,-17.883,-2.585
90.342064,5.74,-19.821,-0.865
90.352778,5.81,-22.476,2.505
90.363492,5.95,-24.727,5.591
90.374206,5.95,-26.32,7.372
90.38492,4.55,-26.324,7.797
90.395634,2.38,-25.594,7.286
90.406348,0.14,-25.298,6.414
90.417062,-1.89,-24.662,6.029
90.427791,-4.48,-24.22,5.538
90.43852,-6.65,-23.165,4.8
90.449249,-7.35,-21.981,4.938
90.459978,-6.79,-20.461,4.78
90.470707,-6.37,-19.05,5.242
90.481436,-5.95,-17.87,5.805
90.492165,-5.81,-17.383,6.673
90.502894,-6.02,-16.754,5.931
90.513623,-6.09,-16.75,5.505
90.524352,-6.16,-17.2,5.639
90.535081,-5.25,-17.618,5.992
90.54581,-3.99,-18.429,6.559
90.556518,-3.01,-19.512,6.653
90.567226,-2.38,-19.95,6.718
90.577934,-3.15,-19.743,6.754
90.588642,-3.43,-19.179,6.783
90.59935,-3.92,-18.632,7.306
90.610058,-4.97,-18.546,8.031
90.620766,-4.83,-18.644,8.583
90.631474,-4.83,-19,8.591
90.642182,-5.32,-18.838,8.478
90.65289,-5.95,-18.263,8.437
90.663598,-6.72,-17.82,9.155
90.674306,-7.21,-18.035,9.97
90.685014,-7.28,-18.197,11.292
90.695722,-6.72,-17.682,11.596
90.70643,-5.53,-16.352,10.906
90.717138,-4.2,-15.103,11.482
90.727846,-2.87,-14.11,12.297
90.738554,-3.43,-13.862,14.117
90.749262,-5.88,-13.513,16.169
90.75997,-9.1,-12.54,16.696
90.770678,-12.11,-11.465,15.038
90.781386,-14.28,-10.732,12.892
90.792094,-15.68,-10.675,11.765
90.802802,-17.36,-11.397,11.424
90.81351,-19.11,-12.658,10.918
90.824239,-20.58,-15.468,11.133
90.834968,-21.42,-18.546,11.657
90.845697,-21.63,-22.37,13.186
90.856426,-21.14,-25.869,14.488
90.867155,-20.51,-28.03,14.249
90.877884,-19.53,-29.94,12.988
90.888613,-18.69,-30.865,10.977
90.899342,-18.27,-31.186,9.57
90.910071,-17.36,-31.218,8.143
90.9208,-16.38,-30.91,7.202
90.931529,-15.47,-30.436,6.93
90.942258,-14.98,-30.253,7.105
90.952975,-14.56,-30.18,7.899
90.963692,-15.12,-29.604,9.067
90.974409,-14.77,-29.045,9.521
90.985126,-14.35,-27.974,9.497
90.995843,-13.16,-26.559,9.533
91.00656,-12.53,-24.831,9.411
91.017277,-11.83,-23.214,8.701
91.027994,-10.92,-21.482,8.154
91.038711,-9.66,-19.783,7.387
91.049428,-8.61,-18.928,6.969
91.060145,-7.14,-18.153,6.608
91.070862,-5.88,-17.93,7.358
91.081579,-5.11,-18.169,8.311
91.092298,-4.34,-18.773,10.124
91.103017,-3.85,-18.862,11.032
91.113736,-3.78,-19.097,11.559
91.124455,-3.29,-19.247,11.604
91.135174,-2.66,-20.067,11.815
91.145893,-2.59,-20.054,12.954
91.156612,-3.01,-19.657,13.522
91.167331,-3.43,-18.882,13.161
91.17805,-5.6,-18.302,12.695
91.188769,-7.56,-16.948,11.867
91.199488,-9.59,-15.667,10.245
91.210207,-11.62,-14.649,8.505
91.22091,-13.16,-12.634,7.155
91.231613,-14.49,-10.761,6.206
91.242316,-14.98,-8.872,4.762
91.253019,-15.89,-7.209,4.202
91.263722,-16.24,-5.859,3.8
91.274425,-16.1,-5.129,3.289
91.285128,-15.96,-4.784,3.35
91.295831,-15.89,-4.411,4.056
91.306534,-15.05,-4.594,5.09
91.317237,-14.28,-4.926,6.168
91.32794,-13.3,-5.153,7.052
91.338643,-12.25,-5.607,7.612
91.349346,-10.99,-5.526,7.555
91.360056,-10.36,-5.871,7.494
91.370766,-9.87,-5.765,7.3
91.381476,-9.87,-6.008,7.47
91.392186,-10.01,-6.661,8.35
91.402896,-9.52,-6.953,8.796
91.413606,-9.31,-6.908,8.946
91.424316,-9.24,-6.41,8.537
91.435026,-9.45,-5.806,7.932
91.445736,-10.57,-4.877,7.101
91.456446,-11.2,-3.746,6.732
91.467156,-12.32,-2.651,6.569
91.477866,-14.07,-1.962,6.691
91.488588,-15.82,-1.074,7.701
91.49931,-17.43,-0.21,7.64
91.510032,-18.48,0.289,7.23
91.520754,-19.32,1.258,6.974
91.531476,-18.48,1.781,6.427
91.542198,-18.41,1.651,6.759
91.55292,-19.11,1.643,7.611
91.563642,-19.6,1.286,7.619
91.574364,-19.67,1.647,7.185
91.585086,-19.46,1.87,6.727
91.595808,-19.53,1.489,6.873
91.60653,-18.27,0.917,7.696
91.617252,-17.01,-0.129,8.791
91.627973,-16.52,-1.39,8.285
91.638694,-17.22,-2.12,7.587
91.649415,-16.8,-2.801,7.822
91.660136,-17.92,-3.644,8.171
91.670857,-19.25,-5.335,8.086
91.681578,-20.72,-7.119,8.127
91.692299,-22.4,-8.681,7.71
91.70302,-24.92,-10.266,6.222
91.713741,-26.11,-10.984,4.247
91.724462,-27.93,-12.063,2.706
91.735183,-29.33,-13.698,1.494
91.745904,-31.71,-15.741,0.992
91.756614,-34.23,-18.101,-0.135
91.767324,-35.98,-20.283,-1.871
91.778034,-36.75,-21.784,-3.841
91.788744,-37.66,-22.985,-5.901
91.799454,-39.9,-25.15,-8.131
91.810164,-43.19,-27.989,-12.185
91.820874,-48.37,-32.207,-18.9
91.831584,-50.05,-37.954,-25.813
91.842294,-47.74,-42.845,-29.518
91.853004,-42.42,-49.983,-35.397
91.863714,-41.86,-51.783,-37.278
91.874424,-40.46,-52.797,-38.381
91.885134,-37.8,-53.268,-38.535
91.895902,-36.33,-52.323,-37.445
91.90667,-34.65,-50.842,-35.762
91.917438,-33.88,-48.028,-32.778
91.928206,-34.23,-44.276,-29.06
91.938974,-34.09,-41.863,-25.009
91.949742,-33.39,-40.115,-20.01
91.96051,-31.64,-38.545,-15.61
91.971278,-30.8,-37.446,-12.573
91.982046,-30.1,-35.945,-10.603
91.992814,-29.26,-33.686,-8.499
92.003582,-27.3,-31.386,-5.819
92.014383,-25.41,-29.651,-4.375
92.025184,-23.8,-28.564,-2.478
92.035985,-22.05,-27.404,-0.994
92.046786,-20.3,-26.013,0.389
92.057587,-19.67,-24.188,2.132
92.068388,-18.97,-21.941,3.097
92.079189,-18.48,-19.808,3.9
92.08999,-17.64,-18.101,4.698
92.100791,-17.29,-16.426,5.278
92.111592,-16.38,-15.222,5.703
92.122393,-15.61,-14.24,6.587
92.133194,-14.14,-13.388,7.804
92.144017,-13.93,-13.271,8.748
92.15484,-14,-14.159,10.156
92.165663,-13.51,-16.381,11.47
92.176486,-14.77,-18.667,12.346
92.187309,-15.47,-20.808,12.395
92.198132,-15.19,-22.28,12.278
92.208955,-15.12,-23.424,12.716
92.219778,-14.42,-24.267,13.065
92.230601,-13.86,-25.062,13.138
92.241424,-13.58,-25.228,13.677
92.252247,-12.88,-25.646,14.03
92.26307,-11.97,-25.39,13.791
92.273893,-10.64,-24.766,13.474
92.28472,-8.33,-23.687,13.806
92.295547,-6.93,-22.592,14.853
92.306374,-5.88,-21.477,16.186
92.317201,-4.69,-20.183,16.912
92.328028,-3.43,-18.874,17.143
92.338855,-2.17,-17.004,16.62
92.349682,-1.4,-14.336,15.597
92.360509,-0.77,-12.629,15.188
92.371336,0,-11.084,14.891
92.382163,0.14,-10.241,14.543
92.39299,-0.14,-9.831,13.833
92.403817,0.42,-9.73,12.856
92.414644,0.77,-9.219,12.377
92.425485,1.68,-8.412,12.235
92.436326,3.08,-7.565,12.669
92.447167,3.43,-6.093,12.786
92.458008,3.57,-4.499,13.423
92.468849,3.71,-2.82,13.577
92.47969,3.22,-0.521,13.84
92.490531,3.22,2.066,12.874
92.501372,3.29,4.58,12.322
92.512213,4.55,6.445,12.225
92.523054,6.37,8.469,12.44
92.533895,7.84,10.971,13.165
92.544736,9.8,13.712,12.938
92.555552,12.53,17.527,12.26
92.566368,16.31,21.457,11.744
92.577184,18.9,26.874,12.06
92.588,18.06,32.077,11.982
92.598816,13.79,36.201,11.572
92.609632,8.82,38.078,11.405
92.620448,3.36,38.062,13.109
92.631264,-0.98,37.669,14.532
92.64208,-5.6,37.109,14.078
92.652896,-10.15,36.176,12.918
92.663712,-13.02,35.815,12.144
92.674528,-14.91,35.852,10.729
92.685344,-16.59,35.243,9.342
92.696143,-16.87,35.239,8.559
92.706942,-17.71,35.616,8.839
92.717741,-18.62,36.281,10.307
92.72854,-20.23,37.153,11.811
92.739339,-20.79,38.277,13.502
92.750138,-22.96,38.804,14.945
92.760937,-24.57,38.63,16.336
92.771736,-25.9,37.982,17.999
92.782535,-25.62,37.284,19.937
92.793334,-24.64,36.409,22.484
92.804133,-22.75,34.872,24.345
92.814932,-20.44,32.715,26.097
92.82574,-18.55,30.4,27.537
92.836548,-16.94,27.407,27.578
92.847356,-14.28,25.749,27.712
92.858164,-11.62,25.031,28.154
92.868972,-8.82,25.794,27.862
92.87978,-5.81,26.495,26.707
92.890588,-2.66,27.509,25.393
92.901396,0.77,28.498,24.216
92.912204,3.36,29.353,22.59
92.923012,5.18,28.943,20.883
92.93382,5.74,27.719,20.17
92.944628,7.35,27.338,20.316
92.955412,9.38,26.863,20.588
92.966196,10.08,26.721,19.781
92.97698,9.8,25.671,17.676
92.987764,9.31,24.892,16.046
92.998548,7.77,24.324,14.027
93.009332,7.21,24.072,11.424
93.020116,7.91,23.707,9.867
93.0309,8.61,23.699,9.51
93.041684,7.77,23.93,9.408
93.052468,5.74,22.762,8.776
93.063252,2.17,21.257,8.44
93.074036,-1.82,19.692,8.448
93.08482,-5.04,17.952,7.43
93.095589,-7.7,18.139,5.97
93.106358,-8.05,19.185,3.667
93.117127,-7.07,21.406,1.145
93.127896,-6.09,23.17,-0.393
93.138665,-3.01,23.47,-0.482
93.149434,-0.28,23.616,-0.101
93.160203,3.29,22.327,-0.044
93.170972,6.02,21.67,0.054
93.181741,7.84,20.551,-0.854
93.19251,10.22,19.431,-1.763
93.203279,12.88,18.316,-1.888
93.214048,13.37,16.868,-2.143
93.224772,12.88,15.1,-2.597
93.235496,10.78,13.543,-4.649
93.24622,9.66,12.079,-5.618
93.256944,9.24,10.761,-6.206
93.267668,8.54,9.768,-5.812
93.278392,6.86,9.131,-4.218
93.289116,3.15,6.99,-4.17
93.29984,0.63,5.449,-4.299
93.310564,-0.77,5.413,-4.092
93.321288,-2.59,5.287,-4.185
93.332012,-4.69,5.611,-4.413
93.342736,-5.18,5.693,-4.469
93.35346,-5.04,5.766,-3.675
93.364186,-4.9,5.433,-2.596
93.374912,-4.48,4.768,-1.647
93.385638,-3.92,4.03,-1.493
93.396364,-5.67,3.106,-1.087
93.40709,-7.84,3.248,-1.489
93.417816,-9.52,3.548,-2.786
93.428542,-10.08,3.126,-3.216
93.439268,-11.9,2.895,-1.906
93.449994,-13.58,3.199,-1.213
93.46072,-15.54,3.033,-1.882
93.471446,-16.52,3.43,-2.523
93.482172,-15.89,3.09,-1.801
93.492861,-13.23,3.362,-0.118
93.50355,-10.57,4.392,1.698
93.514239,-7.84,4.132,2.363
93.524928,-6.3,3.394,2.518
93.535617,-7.07,2.097,3.426
93.546306,-7.07,0.146,2.798
93.556995,-4.55,-0.872,2.121
93.567684,-1.05,-1.379,0.965
93.578373,0.77,-1.934,0.085
93.589062,0.56,-3.082,-1.467
93.599751,2.17,-5.012,-3.016
93.61044,6.58,-6.797,-2.975
93.621129,8.82,-7.311,-2.071
93.631799,6.72,-6.91,-3.138
93.642469,3.36,-7.279,-5.477
93.653139,-0.28,-8.484,-4.694
93.663809,-4.83,-10.34,-1.823
93.674479,-11.06,-11.824,-0.663
93.685149,-16.17,-12.109,-2.277
93.695819,-20.02,-12.287,-4.086
93.706489,-21.56,-12.835,-4.609
93.717159,-22.05,-14.197,-4.138
93.727829,-23.17,-14.404,-4.175
93.738499,-23.59,-12.616,-5.85
93.749169,-21.49,-9.096,-8.072
93.759844,-18.69,-5.682,-8.892
93.770519,-18.27,-3.687,-6.905
93.781194,-19.6,-4.348,-3.965
93.791869,-20.51,-5.624,-1.56
93.802544,-21.91,-6.354,0.159
93.813219,-22.68,-6.001,0.577
93.823894,-22.12,-6.358,0.585
93.834569,-21.7,-6.974,1.258
93.845244,-24.57,-8.535,2.049
93.855919,-29.61,-8.633,1.392
93.866594,-35.42,-6.444,-1.349
93.877269,-42.42,-4.173,-5.356
93.887924,-51.1,-3.225,-8.316
93.898579,-59.78,-4.004,-9.946
93.909234,-68.88,-5.756,-12.103
93.919889,-79.52,-7.784,-14.309
93.930544,-90.51,-8.854,-15.493
93.941199,-99.05,-7.67,-16.564
93.951854,-102.69,-5.205,-18.048
93.962509,-99.96,-2.213,-19.297
93.973164,-92.26,0.013,-19.829
93.983819,-82.11,2.183,-20.442
93.994474,-70.56,3.719,-22.303
94.005129,-58.45,5.451,-22.851
94.015784,-47.88,6.627,-24.278
94.026419,-38.36,7.417,-25.134
94.037054,-29.75,7.782,-25.994
94.047689,-20.79,8.021,-28.155
94.058324,-14.28,7.226,-30.499
94.068959,-11.13,5.822,-33.021
94.079594,-11.9,4.65,-35.644
94.090229,-13.44,3.762,-37.862
94.100864,-16.31,3.713,-38.795
94.111499,-20.65,3.92,-37.55
94.122134,-26.67,3.771,-32.672
94.132769,-33.32,3.164,-23.183
94.143404,-42.49,2.594,-10.276
94.154043,-51.1,4.201,3.584
94.164682,-56.21,8.392,18.112
94.175321,-55.44,13.086,31.806
94.18596,-50.19,16.279,44.736
94.196599,-43.75,15.45,58.309
94.207238,-38.01,12.487,68.661
94.217877,-34.37,10.01,73.84
94.228516,-32.13,9.45,73.386
94.239155,-30.03,9.222,67.02
94.249794,-28.35,5.908,57.195
94.260433,-27.51,-0.192,46.239
94.271072,-26.18,-6.021,33.341
94.281729,-23.45,-8.951,16.902
94.292386,-20.44,-9.432,0.683
94.303043,-18.69,-6.903,-11.239
94.3137,-18.97,-3.234,-15.924
94.324357,-19.25,0.841,-16.058
94.335014,-18.48,4.248,-12.401
94.345671,-16.87,7.76,-7.73
94.356328,-15.75,10.725,-2.374
94.366985,-14.98,12.96,2.285
94.377642,-14.35,14.331,4.588
94.388299,-14.07,15.134,7.289
94.398956,-13.09,15.248,9.868
94.409598,-11.62,15.354,10.881
94.42024,-10.71,15.577,10.423
94.430882,-9.31,15.767,8.538
94.441524,-5.88,15.896,5.788
94.452166,-2.31,16.857,3.967
94.462808,-2.24,18.596,1.36
94.47345,-1.82,20.048,-2.436
94.484092,0.21,22.971,-6.114
94.494734,2.52,27.557,-7.935
94.505376,4.55,33.533,-9.583
94.516018,6.23,39.839,-11.883
94.52666,8.75,46.367,-12.224
94.537302,11.2,52.109,-10.927
94.547918,13.51,57.296,-9.302
94.558534,14.28,61.172,-9.116
94.56915,14.56,62.409,-10.888
94.579766,14.07,60.847,-12.514
94.590382,13.58,57.101,-13.033
94.600998,12.53,52.275,-13.883
94.611614,9.59,48.033,-15.627
94.62223,5.53,43.516,-17.418
94.632846,1.4,40.008,-17.681
94.643462,-2.59,36.298,-17.198
94.654078,-5.04,32.94,-16.298
94.664694,-5.25,29.652,-15.385
94.67531,-4.13,26.619,-14.711
94.685904,-5.67,24.194,-13.859
94.696498,-7.49,22.479,-15.015
94.707092,-7.42,21.327,-17.35
94.717686,-4.34,20.946,-17.204
94.72828,-0.84,21.157,-16.385
94.738874,1.75,20.496,-17.07
94.749468,4.69,18.196,-18.542
94.760062,6.3,16.047,-18.85
94.770656,8.96,14.409,-18.428
94.78125,11.76,13.411,-17.609
94.791844,11.2,13.087,-17.382
94.802438,9.59,12.394,-18.286
94.813042,8.54,12.073,-18.484
94.823646,7.98,11.518,-16.947
94.83425,8.05,10.184,-15.832
94.844854,7.28,8.096,-15.276
94.855458,6.65,5.582,-14.724
94.866062,6.16,4,-14.221
94.876666,6.72,2.589,-14.683
94.88727,7.42,1.543,-13.588
94.897874,7,-0.545,-11.824
94.908478,5.04,-3.27,-8.466
94.919082,2.59,-5.686,-6.049
94.929686,0.42,-7.166,-5.315
94.940287,-3.08,-8.751,-5.595
94.950888,-8.54,-10.771,-6.235
94.961489,-15.05,-12.434,-6.884
94.97209,-20.86,-14.36,-7.65
94.982691,-25.97,-16.104,-8.242
94.993292,-28.77,-16.943,-9.527
95.003893,-28.42,-16.789,-11.206
95.014494,-27.09,-15.69,-11.794
95.025095,-26.67,-14.867,-13.639
95.035696,-24.29,-14.402,-16.684
95.046297,-20.65,-13.558,-18.242
95.056898,-20.16,-14.301,-20.078
95.067499,-20.16,-15.931,-21.716
95.078108,-22.12,-18.088,-22.381
95.088717,-22.19,-19.682,-23.017
95.099326,-20.58,-19.65,-24.007
95.109935,-18.27,-19.236,-25.142
95.120544,-18.34,-18.754,-26.266
95.131153,-19.46,-18.932,-26.866
95.141762,-21.49,-19.865,-25.609
95.152371,-24.29,-20.104,-22.239
95.16298,-28.07,-20.452,-19.457
95.173589,-31.5,-18.36,-19.23
95.184198,-34.37,-14.597,-19.206
95.194807,-37.17,-10.53,-19.698
95.205453,-40.46,-6.973,-19.71
95.216099,-43.82,-4.082,-18.774
95.226745,-46.76,-2.683,-17.035
95.237391,-47.39,-1.498,-15.689
95.248037,-47.32,-1.328,-14.237
95.258683,-46.48,-2.382,-13.499
95.269329,-43.75,-3.988,-11.649
95.279975,-40.46,-5.974,-9.654
95.290621,-36.68,-8.294,-7.788
95.301267,-31.57,-10.033,-6.389
95.311913,-26.53,-11.655,-5.254
95.322559,-22.47,-13.524,-4.73
95.333217,-18.76,-15.341,-4.908
95.343875,-15.4,-18.082,-4.681
95.354533,-13.72,-21.711,-3.046
95.365191,-13.3,-26.516,-1.193
95.375849,-14.07,-31.824,0.288
95.386507,-14.91,-37.857,1.854
95.397165,-15.82,-44.094,2.958
95.407823,-16.87,-49.576,3.413
95.418481,-15.96,-52.937,3.531
95.429139,-15.33,-54.637,3.089
95.439797,-14.56,-54.835,2.201
95.450455,-14.49,-54.093,1.621
95.461113,-14.84,-52.135,1.398
95.471816,-15.54,-48.83,1.199
95.482519,-15.19,-45.472,1.507
95.493222,-15.33,-41.616,1.405
95.503925,-15.4,-37.792,1.084
95.514628,-15.26,-34.346,0.483
95.525331,-15.19,-31.094,-0.223
95.536034,-14.56,-29.022,-0.284
95.546737,-14.49,-27.172,0.113
95.55744,-14.7,-25.461,0.486
95.568143,-14.91,-23.186,0.887
95.578846,-16.66,-21.199,1.309
95.589549,-19.81,-19.322,1.142
95.600309,-22.54,-17.882,1.041
95.611069,-24.29,-16.8,0.947
95.621829,-26.04,-15.628,1.154
95.632589,-28.35,-14.326,1.028
95.643349,-29.82,-13,0.764
95.654109,-30.66,-11.735,0.845
95.664869,-32.41,-10.198,1.4
95.675629,-36.05,-8.994,1.826
95.686389,-41.79,-6.463,1.988
95.697149,-48.3,-3.747,1.898
95.707909,-54.88,-0.644,2.445
95.718669,-59.92,2.636,2.384
95.729453,-63.35,5.945,1.759
95.740237,-64.33,9.359,2.148
95.751021,-64.4,11.788,2.079
95.761805,-63.7,13.349,2.496
95.772589,-61.46,14.761,2.958
95.783373,-57.82,15.288,3.193
95.794157,-54.6,15.839,3.29
95.804941,-51.24,16.022,2.256
95.815725,-47.04,16.086,1.486
95.826509,-43.82,16.135,1.21
95.837293,-40.81,16.472,0.914
95.848077,-38.15,16.755,0.111
95.858861,-35.49,17.003,-0.485
95.869646,-31.99,17.144,-0.886
95.880431,-28.42,17.351,-0.85
95.891216,-25.27,17.651,-0.939
95.902001,-21.84,17.088,-0.967
95.912786,-19.53,16.808,-0.59
95.923571,-16.87,16.698,0.03
95.934356,-15.75,16.374,0.257
95.945141,-14.91,15.815,1.012
95.955926,-14.84,15.032,1.016
95.966711,-14.84,14.683,1.381
95.977496,-15.05,14.89,1.417
95.988281,-15.12,15.279,0.42
95.999066,-15.4,15.908,-0.323
96.009853,-16.17,16.585,-1.34
96.02064,-16.17,16.978,-1.555
96.031427,-16.1,17.144,-0.886
96.042214,-16.45,17.149,-0.104
96.053001,-17.22,17.818,-0.27
96.063788,-18.69,18.661,-0.619
96.074575,-19.46,19.898,-1.183
96.085362,-19.25,21.045,-2.047
96.096149,-19.11,21.698,-2.927
96.106936,-18.2,21.698,-2.927
96.117723,-17.15,21.126,-3.312
96.12851,-16.38,20.116,-2.424
96.139297,-15.75,18.454,-1.864
96.150084,-15.4,16.009,-1.3
96.160886,-15.05,13.337,-1.06
96.171688,-14.91,10.036,-1.287
96.18249,-15.33,6.914,-0.913
96.193292,-16.03,4.298,-1.801
96.204094,-16.03,1.849,-2.02
96.214896,-15.61,0.223,-2.875
96.225698,-14.63,-0.073,-3.212
96.2365,-14.49,-0.422,-4.055
96.247302,-15.54,-0.658,-4.736
96.258104,-16.94,-0.601,-4.655
96.268891,-17.99,-0.118,-4.57
96.279678,-19.46,-0.41,-4.124
96.290465,-20.3,-0.726,-3.54
96.301252,-21,-0.584,-2.733
96.312039,-20.37,-0.819,-2.206
96.322826,-19.46,-0.892,-1.792
96.333613,-18.76,-1.136,-1.622
96.3444,-17.57,-1.789,-1.95
96.355187,-15.75,-2.401,-1.703
96.365974,-14.77,-3.009,-1.881
96.376761,-13.72,-3.751,-3.718
96.387548,-12.11,-5.098,-4.95
96.398335,-10.29,-6.582,-4.999
96.409136,-9.03,-8.423,-5.039
96.419937,-8.26,-11.322,-5.124
96.430738,-7.84,-14.031,-4.678
96.441539,-8.26,-16.894,-3.761
96.45234,-9.24,-19.931,-3.87
96.463141,-9.38,-21.735,-4.117
96.473942,-8.75,-23.418,-3.845
96.484743,-8.47,-24.416,-3.026
96.495544,-8.75,-24.659,-2.855
96.506345,-10.01,-23.783,-2.985
96.517146,-9.66,-22.745,-3.229
96.527947,-9.66,-21.581,-3.379
96.538725,-7.84,-20.198,-2.353
96.549503,-7.21,-18.122,-1.632
96.560281,-6.86,-17.035,-2.151
96.571059,-4.97,-15.766,-1.287
96.581837,-3.15,-14.379,-0.687
96.592615,-2.24,-13.081,-0.387
96.603393,-1.26,-11.747,-0.294
96.614171,-0.91,-10.75,-1.114
96.624949,-0.56,-9.708,-1.783
96.635727,-0.56,-9.197,-2.261
96.646505,-0.14,-8.179,-2.793
96.657283,0,-7.235,-2.91
96.668061,-0.42,-5.819,-2.874
96.678833,-0.28,-4.477,-2.424
96.689605,-0.21,-3.305,-2.218
96.700377,0.77,-2.19,-2.092
96.711149,1.19,-1.318,-1.796
96.721921,1.68,-0.921,-1.229
96.732693,1.33,-0.58,-0.742
96.743465,0.49,-0.487,0.341
96.754237,0.84,-0.008,0.852
96.765009,1.12,0.547,0.523
96.775781,0.77,1.006,0.746
96.786553,1.47,1.314,1.014
96.797325,2.17,1.841,1.249
96.808066,3.22,2.612,1.313
96.818807,3.22,2.851,1.569
96.829548,3.64,3.577,1.484
96.840289,4.34,4.449,1.78
96.85103,4.83,5.333,2.006
96.861771,6.51,6.448,2.132
96.872512,7.84,7.648,2.983
96.883253,9.38,8.313,4.451
96.893994,9.66,9.822,5.57
96.904735,8.89,10.495,4.978
96.915476,7.77,10.973,4.281
96.926217,6.58,12.312,3.948
96.936958,4.97,13.828,4.215
96.947686,3.85,15.539,4.588
96.958414,2.03,18.268,4.43
96.969142,0.84,21.833,4.774
96.97987,-0.21,26.504,4.887
96.990598,-1.54,31.739,6.236
97.001326,-3.85,36.719,7.825
97.012054,-5.53,41.135,9.386
97.022782,-6.93,45.036,10.642
97.03351,-8.33,48.207,11.201
97.044238,-9.24,51.334,11.61
97.054966,-10.22,53.84,11.91
97.065694,-10.78,55.871,11.273
97.076383,-11.62,57.29,10.884
97.087072,-12.67,57.834,10.624
97.097761,-13.23,57.769,10.186
97.10845,-13.79,57.233,9.594
97.119139,-13.51,56.098,9.181
97.129828,-12.46,54.963,8.767
97.140517,-11.83,53.9,7.94
97.151206,-11.76,53.081,6.943
97.161895,-11.76,52.57,5.005
97.172584,-11.76,52.038,2.779
97.183273,-12.95,51.13,1.481
97.193962,-14.14,50.335,0.346
97.204651,-15.19,49.252,-0.769
97.215317,-15.05,48.36,-1.353
97.225983,-14.84,47.074,-1.722
97.236649,-14,46.154,-1.742
97.247315,-12.88,45.128,-1.567
97.257981,-13.16,44.009,-1.267
97.268647,-13.51,43.112,-1.425
97.279313,-13.65,41.997,-0.342
97.289979,-14.56,40.676,0.704
97.300645,-15.12,40.027,1.158
97.311311,-15.89,40.059,1.377
97.321977,-16.52,40.875,1.592
97.332643,-17.01,41.394,1.47
97.34327,-17.78,41.458,1.908
97.353897,-18.41,41.154,2.423
97.364524,-17.92,40.522,3.591
97.375151,-17.22,39.646,4.929
97.385778,-16.52,38.535,5.586
97.396405,-15.33,37.947,5.696
97.407032,-14.21,36.998,5.031
97.417659,-13.16,36.066,3.872
97.428286,-12.67,35.81,2.902
97.438913,-12.39,35.246,1.666
97.44954,-11.62,34.792,1.017
97.460167,-12.04,34.435,1.025
97.470794,-11.62,34.127,0.758
97.481408,-11.41,33.79,1.054
97.492022,-10.43,33.267,1.601
97.502636,-9.03,33.113,2.072
97.51325,-7.14,33.109,2.497
97.523864,-5.81,33.904,2.424
97.534478,-4.06,35.7,2.314
97.545092,-2.8,37.789,2.967
97.555706,-1.96,40.372,3.636
97.56632,-1.47,42.469,4.645
97.576934,-1.26,44.606,6.23
97.587548,-1.47,46.751,8.172
97.598162,-0.21,48.406,9.673
97.60879,0.42,49.995,10.735
97.619418,0.7,51.934,11.432
97.630046,0.63,53.491,11.067
97.640674,0.49,54.338,10.292
97.651302,0.84,55.165,9.23
97.66193,0.98,55.773,8.2
97.672558,1.68,54.942,7.271
97.683186,2.45,54.009,6.111
97.693814,3.99,53.202,5.045
97.704442,5.46,51.252,4.417
97.71507,7,49.346,3.939
97.725698,7.77,46.823,2.925
97.736314,8.68,43.364,1.178
97.74693,8.47,40.481,-0.61
97.757546,8.82,37.504,-2.272
97.768162,9.1,33.753,-4.781
97.778778,8.26,29.657,-6.143
97.789394,8.05,25.156,-7.221
97.80001,7.7,21.154,-8.709
97.810626,7.7,17.196,-10.047
97.821242,7.49,13.57,-11.254
97.831858,7.28,10.217,-11.988
97.842474,7.14,7.431,-13.119
97.85309,6.65,5.071,-14.246
97.863706,6.09,3.047,-15.669
97.8743,5.88,1.964,-16.784
97.884894,5.67,0.638,-17.729
97.895488,5.25,-0.741,-17.972
97.906082,5.46,-1.633,-17.347
97.916676,5.53,-3.218,-16.418
97.92727,5.04,-5.01,-15.526
97.937864,4.76,-6.068,-15.57
97.948458,4.76,-6.409,-16.057
97.959052,4.83,-6.892,-16.142
97.969646,4.76,-7.094,-16.604
97.98024,5.46,-6.365,-17.115
97.990834,5.74,-6.434,-18.336
98.001428,5.18,-6.243,-20.221
98.012031,4.48,-5.741,-22.265
98.022634,3.64,-5.36,-24.828
98.033237,2.87,-4.874,-27.585
98.04384,2.1,-4.051,-30.639
98.054443,2.17,-3.439,-33.303
98.065046,2.31,-3.326,-35.558
98.075649,2.52,-3.355,-37.411
98.086252,2.94,-4.162,-39.686
98.096855,4.2,-4.624,-41.9
98.107458,4.9,-5.059,-43.469
98.118061,5.53,-5.477,-45.533
98.128664,6.23,-6.632,-46.234
98.139302,6.37,-8.124,-45.431
98.14994,6.58,-9.564,-45.329
98.160578,6.93,-10.76,-45.398
98.171216,6.51,-12.05,-45.341
98.181854,6.16,-13.258,-45.341
98.192492,5.6,-14.345,-46.03
98.20313,5.11,-14.653,-47.506
98.213768,4.97,-14.163,-49.481
98.224406,4.76,-14.528,-51.038
98.235044,4.76,-14.865,-51.95
98.245682,4.48,-15.858,-51.557
98.25632,3.99,-17.269,-49.602
98.266971,3.57,-18.351,-47.092
98.277622,3.92,-18.704,-45.093
98.288273,5.46,-18.983,-43.507
98.298924,7.84,-18.051,-42.348
98.309575,9.8,-16.068,-41.501
98.320226,10.78,-14.567,-41.947
98.330877,10.5,-13.529,-42.19
98.341528,11.2,-12.455,-42.641
98.352179,11.41,-11.36,-42.803
98.36283,11.97,-10.78,-43.269
98.373481,13.37,-9.454,-44.741
98.384132,15.26,-7.93,-46.534
98.394783,16.87,-7.192,-47.897
98.405469,17.15,-7.387,-48.002
98.416155,17.36,-8.453,-47.195
98.426841,16.66,-8.81,-45.978
98.437527,15.54,-8.575,-46.506
98.448213,13.79,-7.334,-47.495
98.458899,12.11,-5.805,-48.505
98.469585,10.64,-4.338,-49.17
98.480271,9.38,-3.235,-48.976
98.490957,7.63,-2.553,-48.003
98.501643,5.95,-2.857,-47.488
98.512329,4.97,-3.044,-46.028
98.523015,4.41,-3.047,-44.394
98.533708,4.97,-3.331,-42.382
98.544401,5.6,-3.919,-39.856
98.555094,6.58,-4.571,-36.559
98.565787,6.44,-5.819,-31.093
98.57648,5.67,-7.834,-24.909
98.587173,4.76,-8.279,-19.159
98.597866,4.34,-7.934,-14.264
98.608559,4.2,-7.811,-10.12
98.619252,4.83,-7.734,-6.126
98.629945,4.9,-8.07,-2.205
98.640638,5.32,-8.746,1.23
98.651331,6.3,-8.446,3.557
98.662024,7,-7.984,4.563
98.672747,7.49,-7.286,5.041
98.68347,7.84,-7.152,5.491
98.694193,7.84,-7.172,6.412
98.704916,7.91,-7.339,6.951
98.715639,6.72,-7.89,6.854
98.726362,6.58,-8.073,6.68
98.737085,6.86,-8.596,7.227
98.747808,6.72,-9.617,8.184
98.758531,6.51,-10.939,9.231
98.769254,6.3,-12.67,10.987
98.779977,5.46,-14.049,13.16
98.7907,3.5,-15.18,15.946
98.801414,3.01,-16.072,17.779
98.812128,3.15,-17.369,19.896
98.822842,4.48,-19.806,22.025
98.833556,6.02,-22.968,25.448
98.84427,7,-25.157,30.607
98.854984,7.84,-27.062,36.17
98.865698,9.45,-28.379,41.624
98.876412,11.2,-30.929,47.217
98.887126,14,-34.853,53.348
98.89784,18.13,-39.074,59.143
98.908554,23.03,-43.529,64.257
98.919268,28.42,-48.083,67.506
98.929982,35.21,-53.613,70.654
98.940724,41.93,-60.454,74.778
98.951466,45.01,-66.073,80.043
98.962208,45.71,-70.752,84.406
98.97295,47.46,-76.635,87.136
98.983692,50.61,-84.1,91.577
98.994434,53.62,-92.367,96.943
99.005176,55.93,-99.22,99.929
99.015918,58.1,-104.378,98.948
99.02666,60.97,-108.482,96.021
99.037402,64.05,-113.129,93.354
99.048144,67.41,-117.838,91.031
99.058886,69.79,-121.885,88.185
99.069628,69.3,-124.436,85.318
99.080363,67.76,-125.58,82.131
99.091098,66.01,-125.641,78.851
99.101833,65.03,-124.964,75.416
99.112568,63.42,-123.152,72.395
99.123303,60.69,-120.087,68.315
99.134038,55.37,-115.307,62.974
99.144773,48.58,-110.158,56.347
99.155508,43.19,-105.009,49.721
99.166243,38.57,-99.88,44.015
99.176978,35.49,-95.404,40.397
99.187713,32.83,-90.6,37.335
99.198448,30.1,-85.933,34.248
99.209193,26.95,-81.12,31.543
99.219938,22.82,-76.226,29.989
99.230683,18.83,-71.806,27.499
99.241428,15.4,-67.844,25.994
99.252173,13.09,-63.368,26.001
99.262918,12.11,-59.224,25.879
99.273663,12.11,-55.157,25.388
99.284408,12.25,-51.207,25.16
99.295153,11.9,-46.779,24.235
99.305898,10.99,-42.704,22.892
99.316643,10.57,-39.347,21.992
99.327388,10.57,-36.893,21.784
99.338118,12.04,-35.137,22.307
99.348848,13.09,-33.556,23.013
99.359578,13.09,-32.1,23.625
99.370308,10.92,-30.227,23.884
99.381038,8.4,-28.333,23.223
99.391768,6.51,-27.555,22.436
99.402498,5.18,-27.753,22.756
99.413228,5.46,-28.24,23.097
99.423958,6.65,-27.887,23.515
99.434688,7.35,-27.449,23.45
99.445418,6.37,-28.143,22.546
99.456148,5.04,-28.885,21.917
99.466878,3.36,-31.022,22.749
99.477611,1.89,-34.063,24.274
99.488344,1.4,-37.631,25.564
99.499077,2.24,-41.775,26.894
99.50981,2.59,-45.075,27.876
99.520543,3.85,-46.478,27.771
99.531276,3.36,-46.503,26.7
99.542009,1.4,-45.627,25.362
99.552742,1.19,-44.155,24.271
99.563475,3.43,-42.777,24.514
99.574208,7.56,-40.907,25.199
99.584941,11.9,-39.541,24.303
99.595674,16.73,-38.264,23.107
99.606433,19.32,-36.366,22.02
99.617192,20.79,-34.035,20.085
99.627951,20.3,-31.622,18.094
99.63871,19.04,-29.405,15.997
99.649469,18.41,-27.608,14.679
99.660228,17.57,-25.39,13.791
99.670987,16.73,-23.315,12.095
99.681746,16.31,-21.283,10.25
99.692505,15.96,-19.783,9.804
99.703264,14.84,-18.38,9.909
99.714023,14.56,-16.92,10.095
99.724782,14.14,-15.712,10.095
99.735512,13.72,-14.43,10.89
99.746242,12.74,-12.557,11.149
99.756972,11.2,-10.25,10.561
99.767702,9.45,-7.269,10.589
99.778432,7.56,-4.386,9.96
99.789162,5.46,-1.872,9.408
99.799892,4.62,0.946,8.341
99.810622,5.81,4.717,6.305
99.821352,6.72,7.393,5.639
99.832082,8.47,9.007,5.355
99.842812,10.15,10.386,5.598
99.853542,11.76,10.317,6.795
99.864272,14.28,8.878,8.105
99.874978,15.19,7.815,9.694
99.885684,14.14,7.191,10.011
99.89639,12.32,7.657,8.174
99.907096,10.08,8.127,5.911
99.917802,9.17,8.046,4.759
99.928508,7.98,8.824,3.973
99.939214,6.58,10.669,2.379
99.94992,4.62,12.161,0.367
99.960626,3.64,13.179,-1.372
99.971332,4.83,14.581,-2.476
99.982038,6.44,15.198,-3.149
99.992744,7.56,15.38,-2.974
100.003445,6.72,14.516,-2.914
100.014146,6.3,12.457,-2.921
100.024847,6.44,10.283,-1.883
100.035548,6.16,8.126,-0.131
100.046249,6.3,6.553,0.729
100.05695,5.39,5.831,0.388
100.067651,2.38,5.158,-0.228
100.078352,-1.82,5.458,-1.525
100.089053,-5.81,5.717,-3.399
100.099754,-9.38,6.726,-5.495
100.110455,-12.04,8.008,-5.909
100.121156,-10.57,9.585,-5.987
100.131863,-5.53,9.034,-6.084
100.14257,-4.83,7.424,-2.6
100.153277,-7.42,6.589,-0.686
100.163984,-7.35,6.049,-4.478
100.174691,-5.46,7.026,-6.793
100.185398,-4.69,9.017,-6.797
100.196105,-3.5,10.157,-8.018
100.206812,-2.03,11.446,-9.283
100.217519,-1.12,11.993,-8.76
100.228226,0.77,12.107,-7.39
100.238933,3.22,12.789,-6.417
100.24964,7.35,12.906,-5.472
100.260321,9.87,12.817,-3.355
100.271002,9.73,13.243,-2.143
100.281683,8.33,13.697,-2.703
100.292364,6.51,13.855,-3.599
100.303045,6.72,13.835,-3.887
100.313726,7.07,14.448,-1.717
100.324407,5.11,15.336,0.501
100.335088,1.89,15.753,-1.061
100.345769,4.2,16.791,-2.512
100.35645,6.72,17.436,-1.332
100.367131,4.69,17.566,-0.457
100.377812,3.78,17.476,-4.382
100.388493,6.44,18.782,-7.35
100.399161,9.8,20.615,-7.667
100.409829,13.58,23.319,-7.687
100.420497,16.94,25.395,-9.383
100.431165,19.32,27.795,-11.305
100.441833,19.81,29.798,-12.587
100.452501,19.39,31.643,-14.181
100.463169,18.9,32.389,-15.186
100.473837,17.36,32.016,-15.892
100.484505,14.56,31.683,-16.022
100.495173,10.57,31.554,-16.897
100.505841,5.46,30.698,-17.688
100.516509,1.68,29.761,-17.214
100.527154,0.49,28.196,-14.788
100.537799,-0.14,27.061,-11.577
100.548444,0.98,25.634,-9.127
100.559089,1.33,24.609,-6.536
100.569734,-0.14,24.301,-4.387
100.580379,-2.45,22.29,-3.462
100.591024,-5.11,19.865,-2.61
100.601669,-7.42,17.546,-1.953
100.612314,-9.1,16.236,-2.184
100.622959,-8.33,16.856,-3.283
100.633604,-6.37,18.364,-4.581
100.644249,-5.32,19.788,-5.396
100.654894,-5.88,20.692,-6.089
100.665539,-7.49,21.239,-7.983
100.676162,-9.03,21.632,-10.615
100.686785,-9.52,21.068,-13.06
100.697408,-9.17,19.823,-15.27
100.708031,-8.75,18.095,-16.356
100.718654,-8.82,16.149,-17.41
100.729277,-9.87,14.567,-18.116
100.7399,-11.13,13.176,-18.29
100.750523,-12.32,13.407,-17.183
100.761146,-14.42,13.436,-15.33
100.771769,-15.05,13.736,-13.002
100.782392,-14.56,14.479,-11.165
100.793015,-14.07,16.21,-10.505
100.803638,-12.88,19.077,-11.847
100.814242,-10.5,22.682,-13.344
100.824846,-7.49,26.668,-14.987
100.83545,-2.17,31.132,-16.119
100.846054,5.32,35,-16.29
100.856658,12.39,38.885,-15.747
100.867262,18.27,41.967,-14.279
100.877866,22.4,44.806,-12.642
100.88847,25.83,46.793,-11.012
100.899074,28.91,47.868,-9.045
100.909678,31.85,46.571,-6.928
100.920282,31.57,44.985,-4.791
100.9309,25.55,42.48,-3.882
100.941518,16.03,40.038,-6.161
100.952136,5.67,37.276,-9.847
100.962754,-2.38,33.132,-12.141
100.973372,-8.12,29.288,-10.9
100.98399,-10.43,26.543,-9.038
100.994608,-10.85,25.481,-7.449
101.005226,-11.27,26.514,-8.475
101.015844,-12.04,28.392,-11.058
101.026462,-13.72,30.715,-14.558
101.03708,-16.66,32.016,-17.1
101.047698,-19.32,32.685,-18.475
101.058326,-21.77,32.381,-17.96
101.068954,-25.55,32.871,-17.518
101.079582,-28.77,33.236,-17.169
101.09021,-30.66,34.623,-17.778
101.100838,-31.99,36.553,-18.646
101.111466,-32.69,38.556,-19.928
101.122094,-32.69,40.36,-20.889
101.132722,-32.06,41.605,-21.096
101.14335,-32.06,42.307,-19.835
101.153978,-32.48,43.573,-17.337
101.164606,-33.46,44.416,-15.269
101.175234,-35.35,45.288,-13.765
101.185909,-37.38,46.144,-12.974
101.196584,-39.97,46.355,-12.155
101.207259,-41.72,45.329,-11.981
101.217934,-43.75,42.795,-11.717
101.228609,-45.01,38.497,-9.916
101.239284,-46.48,34.093,-7.92
101.249959,-46.34,29.511,-5.316
101.260634,-45.78,25.282,-3.503
101.271309,-44.8,21,-2.197
101.281984,-46.97,15.506,-1.673
101.292659,-51.31,10.117,-2.552
101.303334,-57.05,4.403,-4.412
101.314027,-61.32,0.311,-7.409
101.32472,-62.72,-1.307,-11.532
101.335413,-62.3,-1.928,-15.267
101.346106,-60.83,-2.411,-18.977
101.356799,-61.46,-3.373,-23.198
101.367492,-64.26,-6.703,-27.695
101.378185,-67.13,-10.641,-31.161
101.388878,-69.02,-13.171,-34.948
101.399571,-69.72,-11.558,-41.274
101.410264,-69.86,-2.136,-51.981
101.420957,-70.77,14.844,-67.254
101.43165,-71.47,39.131,-86.073
101.442343,-72.8,67.834,-104.539
101.453083,-77.84,99.453,-116.165
101.463823,-82.81,129.516,-117.759
101.474563,-84.56,152.74,-110.394
101.485303,-83.58,162.495,-90.335
101.496043,-83.86,157.674,-58.56
101.506783,-86.24,142.238,-18.989
101.517523,-88.34,118.044,21.881
101.528263,-92.96,83.816,55.152
101.539003,-96.04,40.854,85.96
101.549743,-100.45,-4.687,118.09
101.560483,-106.89,-47.736,143.338
101.571223,-111.93,-86.118,159.458
101.581966,-116.27,-119.846,170.144
101.592709,-117.46,-146.681,176.003
101.603452,-115.29,-165.05,176.176
101.614195,-108.71,-169.196,163.006
101.624938,-98.28,-158.028,135.548
101.635681,-80.01,-135.8,101.795
101.646424,-58.94,-107.545,68.536
101.657167,-43.19,-82.197,43.294
101.66791,-30.17,-58.575,25.425
101.678653,-17.01,-38.148,7.134
101.689396,-4.06,-23.156,-12.186
101.700139,6.23,-14.667,-26.469
101.710882,11.41,-13.037,-33.29
101.72166,14.98,-14.664,-35.353
101.732438,14.98,-18.658,-37.693
101.743216,14.84,-24.607,-41.443
101.753994,14.63,-31.538,-43.66
101.764772,12.67,-38.686,-42.219
101.77555,9.24,-45.798,-38.569
101.786328,4.27,-52.014,-34.76
101.797106,-0.42,-55.278,-32.777
101.807884,-4.62,-56.515,-32.213
101.818662,-10.5,-55.846,-32.379
101.82944,-16.1,-54.929,-31.934
101.840218,-21,-53.319,-31.792
101.850998,-24.22,-50.891,-31.861
101.861778,-26.53,-48.316,-31.549
101.872558,-26.81,-44.767,-30.71
101.883338,-24.78,-40.392,-30.934
101.894118,-20.44,-36.309,-31.92
101.904898,-16.45,-33.199,-32.224
101.915678,-13.23,-30.263,-32.347
101.926458,-12.32,-27.412,-33.194
101.937238,-10.99,-24.545,-33.329
101.948018,-8.96,-21.281,-32.895
101.958798,-6.51,-18.365,-30.888
101.969578,-3.64,-15.608,-29.194
101.980358,-0.91,-13.564,-27.483
101.991129,1.75,-12.274,-25.123
102.0019,4.41,-11.84,-22.345
102.012671,7.21,-11.718,-19.41
102.023442,10.22,-11.79,-16.579
102.034213,13.72,-12.694,-13.469
102.044984,14.77,-13.448,-10.403
102.055755,12.95,-13.066,-8.132
102.066526,9.52,-10.8,-8.088
102.077297,5.18,-8.156,-10.181
102.088068,1.89,-4.904,-10.887
102.098839,-0.91,-1.762,-12.181
102.10961,-1.05,0.489,-12.85
102.120381,0.35,1.434,-12.968
102.13114,2.45,1.9,-12.388
102.141899,4.97,1.255,-11.151
102.152658,6.58,0.635,-8.844
102.163417,6.44,0.291,-6.488
102.174176,5.25,0.611,-6.289
102.184935,4.41,1.682,-6.314
102.195694,3.15,2.704,-6.063
102.206453,2.1,3.503,-5.353
102.217212,1.96,3.815,-4.303
102.227971,2.52,3.422,-2.88
102.23873,2.66,1.825,-0.673
102.249489,3.29,0.726,1.123
102.260261,3.78,0.604,0.604
102.271033,3.92,1.585,-0.929
102.281805,3.92,4.44,-3.411
102.292577,4.69,8.409,-5.767
102.303349,5.95,14.264,-7.934
102.314121,7.49,22.042,-10.116
102.324893,8.68,31.664,-12.684
102.335665,10.5,44.189,-15.594
102.346437,14.28,58.105,-18.329
102.357209,17.64,72.176,-20.326
102.367981,20.23,85.797,-20.98
102.378753,21.14,98.282,-20.84
102.389499,20.16,108.594,-19.662
102.400245,17.57,117.933,-17.802
102.410991,13.65,126.019,-16.092
102.421737,9.87,132.71,-15.338
102.432483,6.93,136.436,-13.899
102.443229,5.53,137.288,-11.474
102.453975,4.76,135.391,-7.971
102.464721,4.06,131.531,-3.818
102.475467,1.89,125.113,0.737
102.486213,-0.7,117.141,4.022
102.496959,-3.36,107.941,5.812
102.507705,-6.16,99.271,7.411
102.518451,-7.84,91.137,8.393
102.529184,-8.26,83.996,8.982
102.539917,-8.19,77.233,8.643
102.55065,-7.49,70.891,8.733
102.561383,-6.23,64.982,7.975
102.572116,-5.74,59.532,7.441
102.582849,-4.97,53.9,6.732
102.593582,-4.69,49.22,5.054
102.604315,-3.92,45.141,3.197
102.615048,-3.5,41.507,1.632
102.625781,-3.5,38.908,0.25
102.636514,-3.5,36.548,-0.877
102.647247,-3.85,34.536,-1.16
102.657945,-3.57,32.192,-1.574
102.668643,-3.78,29.905,-1.906
102.679341,-4.48,27.034,-1.346
102.690039,-5.67,24.598,-0.425
102.700737,-7,21.869,-0.267
102.711435,-8.68,19.642,0.265
102.722133,-10.15,17.497,0.74
102.732831,-11.13,15,0.797
102.743529,-11.55,12.506,1.636
102.754227,-11.69,10.811,1.977
102.764925,-12.74,8.909,2.282
102.775623,-12.74,6.845,2.7
102.786321,-12.88,5.106,2.89
102.797013,-13.72,4.368,3.045
102.807705,-16.31,4.728,2.611
102.818397,-20.02,5.957,1.69
102.829089,-23.73,8.734,0.047
102.839781,-28,11.715,-1.133
102.850473,-31.08,14.537,-1.417
102.861165,-31.5,16.078,-0.079
102.871857,-31.64,16.236,1.441
102.882549,-32.34,16.07,3.189
102.893241,-32.41,16.512,3.907
102.903933,-31.29,17.526,1.384
102.914625,-30.38,18.64,-2.115
102.925282,-30.03,18.409,-4.431
102.935939,-30.17,17.079,-6.158
102.946596,-30.94,14.857,-6.052
102.957253,-32.2,12.006,-5.204
102.96791,-32.76,9.35,-3.043
102.978567,-32.62,6.662,-1.1
102.989224,-31.22,4.919,-0.483
102.999881,-29.47,2.486,0.012
103.010538,-27.16,0.527,-0.973
103.021195,-25.34,-1.282,-4.42
103.031852,-23.38,-2.235,-8.284
103.042509,-21.14,-2.5,-12.027
103.053166,-18.9,-2.046,-15.003
103.063816,-15.68,-0.692,-17.039
103.074466,-13.02,-0.294,-17.68
103.085116,-10.5,-0.655,-17.246
103.095766,-7.28,-1.892,-16.682
103.106416,-5.46,-3.096,-15.899
103.117066,-4.27,-4.896,-14.155
103.127716,-3.71,-7.26,-11.231
103.138366,-2.73,-11.091,-7.642
103.149016,-0.91,-16.918,-3.623
103.159666,2.24,-22.059,0.944
103.170316,7.77,-26.393,4.16
103.180966,15.4,-31.36,6.127
103.191637,23.1,-38.521,8.845
103.202308,25.62,-44.194,12.394
103.212979,19.88,-44.117,11.555
103.22365,11.27,-39.341,3.014
103.234321,2.73,-33.889,-7.752
103.244992,-4.69,-31.039,-13.434
103.255663,-9.45,-30.366,-14.026
103.266334,-10.15,-30.686,-11.808
103.277005,-7.98,-32.616,-9.731
103.287676,-6.51,-35.45,-8.17
103.298347,-8.26,-38.62,-5.104
103.309018,-10.64,-41.921,-0.497
103.319682,-12.53,-44.605,2.228
103.330346,-13.79,-47.471,2.363
103.34101,-13.51,-47.954,3.486
103.351674,-14.35,-45.354,4.868
103.362338,-19.04,-39.665,5.658
103.373002,-25.2,-32.468,3.942
103.383666,-30.38,-26.503,1.155
103.39433,-35.91,-21.97,1.244
103.404994,-40.39,-20.765,1.669
103.415658,-42.56,-21.223,2.655
103.426322,-44.45,-22.338,4.946
103.436986,-43.68,-23.567,7.075
103.44765,-43.12,-24.71,8.722
103.458339,-42.49,-24.864,9.192
103.469028,-41.09,-25.201,8.28
103.479717,-39.2,-25.992,6.719
103.490406,-36.26,-26.636,5.539
103.501095,-33.04,-26.028,4.509
103.511784,-29.54,-24.496,1.865
103.522473,-27.93,-22.497,-1.408
103.533162,-28.91,-19.919,-3.939
103.543851,-30.73,-16.241,-5.849
103.55454,-30.73,-11.465,-8.348
103.565229,-26.46,-5.796,-10.262
103.575918,-20.09,0.906,-13.203
103.586591,-13.93,8.047,-16.209
103.597264,-9.38,15.439,-19.028
103.607937,-7.49,22.51,-20.838
103.61861,-7.21,28.422,-21.714
103.629283,-6.37,33.138,-21.451
103.639956,-6.58,37.502,-20.398
103.650629,-6.37,42.307,-19.835
103.661302,-5.32,47.286,-20.663
103.671975,-4.13,51.99,-21.539
103.682648,-3.01,55.563,-20.838
103.693321,-4.27,57.963,-19.135
103.703994,-6.02,59.736,-16.691
103.714667,-7.49,60.138,-14.132
103.725345,-8.26,60.398,-11.172
103.736023,-9.52,61.396,-7.158
103.746701,-10.22,62.609,-3.958
103.757379,-11.9,63.489,-2.097
103.768057,-12.74,63.432,0.239
103.778735,-10.57,60.631,3.227
103.789413,-8.96,55.708,6.553
103.800091,-5.95,49.736,8.983
103.810769,-0.14,43.466,7.451
103.821447,4.27,37.489,6.681
103.832125,2.45,30.117,7.372
103.842803,-4.83,22.117,7.596
103.853494,-14.14,15.653,5.959
103.864185,-21.14,9.623,1.057
103.874876,-24.64,3.961,-2.713
103.885567,-26.53,-2.032,-2.988
103.896258,-28.7,-9.817,-2.371
103.906949,-35.14,-19.329,9.244
103.91764,-34.44,-27.258,27.606
103.928331,-33.53,-36.65,49.833
103.939022,-32.83,-44.314,48.553
103.949713,-22.33,-43.667,-18.006
103.960404,-29.75,-45.174,-36.468
103.971095,-28,-47.373,11.478
103.981766,-28.28,-48.81,-30.357
103.992437,-26.6,-45.38,-59.89
104.003108,-29.96,-46.607,-21.084
104.013779,-25.55,-50.644,19.147
104.02445,-16.1,-52.169,14.897
104.035121,-11.9,-52.074,-1.363
104.045792,-13.51,-52.395,-0.354
104.056463,-15.19,-50.756,5.266
104.067134,-15.26,-47.808,2.659
104.077805,-15.26,-45.213,-1.575
104.088476,-16.59,-43.328,-2.593
104.099147,-15.33,-40.676,-0.704
104.109818,-9.45,-37.266,-1.098
104.120479,-5.39,-33.032,0.288
104.13114,-4.2,-27.777,-1.699
104.141801,-0.56,-23.001,-6.615
104.152462,4.62,-16.805,-7.086
104.163123,8.26,-12.036,-6.316
104.173784,12.46,-8.091,-7.326
104.184445,15.68,-3.541,-8.941
104.195106,17.92,1.154,-10.174
104.205767,18.69,5.639,-11.018
104.216428,17.99,9.949,-11.68
104.227089,17.71,13.883,-11.413
104.23775,17.99,17.808,-10.294
104.248428,17.5,21.527,-9.212
104.259106,17.85,24.491,-9.898
104.269784,17.85,27.199,-10.344
104.280462,16.94,28.704,-8.799
104.29114,14.35,28.603,-5.405
104.301818,11.06,27.833,-0.636
104.312496,10.15,27.258,3.029
104.323174,10.64,26.338,4.218
104.333852,12.81,25.827,4.696
104.34453,15.68,26.305,2.79
104.355208,16.03,28.06,-0.312
104.365886,14.49,29.285,-3.224
104.376575,11.83,28.449,-4.935
104.387264,9.03,26.669,-5.32
104.397953,7.14,23.737,-4.415
104.408642,6.65,20.538,-3.202
104.419331,6.3,17.246,-1.864
104.43002,5.18,14.488,-1.141
104.440709,3.43,11.496,0.108
104.451398,2.17,8.982,1.868
104.462087,1.89,7.121,2.748
104.472776,1.96,6.152,3.004
104.483465,3.43,5.86,2.242
104.494154,4.34,6.091,0.932
104.504825,5.81,6.216,-0.183
104.515496,6.37,6.695,0.328
104.526167,5.81,5.726,1.792
104.536838,5.04,4.546,3.645
104.547509,5.67,3.411,5.648
104.55818,6.09,3.135,6.808
104.568851,6.51,2.677,7.793
104.579522,6.65,2.215,7.996
104.590193,5.95,1.262,7.757
104.600864,4.97,0.711,7.66
104.611535,3.43,0.411,7.749
104.622206,1.47,-0.571,8.074
104.632877,0.07,-1.99,7.255
104.643569,-0.56,-3.263,6.817
104.654261,0.28,-5.019,6.294
104.664953,0,-6.515,6.315
104.675645,-0.84,-7.647,5.475
104.686337,-2.8,-8.462,4.052
104.697029,-4.2,-9.294,1.915
104.707721,-5.53,-9.667,0.001
104.718413,-6.09,-9.781,-1.369
104.729105,-6.16,-8.966,-2.363
104.739797,-5.46,-7.77,-3.502
104.750489,-4.76,-6.789,-5.035
104.761181,-3.71,-5.52,-5.38
104.771893,-1.05,-4.972,-4.857
104.782605,1.26,-4.039,-3.698
104.793317,3.71,-3.735,-1.796
104.804029,5.81,-3.455,0.244
104.814741,7.28,-2.988,2.032
104.825453,6.86,-2.558,1.61
104.836165,6.37,-3.236,1.42
104.846877,5.18,-3.88,1.448
104.857589,3.5,-4.74,1.083
104.868301,1.4,-6.232,0.678
104.879013,-0.7,-7.323,0.415
104.889725,-2.31,-8.191,-0.307
104.900492,-2.8,-9.116,-1.11
104.911259,-4.55,-10.142,-2.144
104.922026,-7.63,-10.989,-2.577
104.932793,-10.15,-10.9,-3.486
104.94356,-12.25,-10.564,-4.99
104.954327,-11.83,-9.81,-6.848
104.965094,-10.29,-8.452,-9.309
104.975861,-7.77,-7.223,-10.23
104.986628,-6.51,-6.554,-10.396
104.997395,-4.83,-5.727,-10.25
105.008162,-3.08,-4.758,-10.506
105.018929,-1.96,-3.915,-10.855
105.029737,-0.77,-3.233,-9.882
105.040545,-0.21,-2.081,-8.754
105.051353,-0.14,-1.019,-7.927
105.062161,1.12,0.031,-7.031
105.072969,1.96,0.177,-6.65
105.083777,2.52,0.287,-6.062
105.094585,2.59,0.166,-5.373
105.105393,2.1,-0.313,-4.675
105.116201,0.98,-0.674,-4.241
105.127009,0.98,-1.274,-4.063
105.137817,1.96,-1.882,-4.241
105.148625,1.96,-1.984,-4.472
105.159433,1.68,-2.397,-4.545
105.17028,1.82,-2.466,-4.557
105.181127,1.26,-2.928,-4.355
105.191974,-0.35,-3.946,-3.823
105.202821,-1.47,-5.694,-2.781
105.213668,-2.52,-7.117,-1.966
105.224515,-3.57,-8.852,-0.992
105.235362,-3.64,-10.227,-0.453
105.246209,-2.87,-11.395,0.123
105.257056,-1.82,-12.283,0.322
105.267903,-0.84,-13,0.764
105.27875,0.07,-13.762,1.056
105.289597,1.33,-14.164,0.914
105.300447,3.36,-14.294,1.247
105.311297,4.9,-14.914,1.137
105.322147,5.88,-15.502,1.247
105.332997,5.81,-15.855,2.038
105.343847,5.67,-16.175,3.048
105.354697,5.6,-15.992,3.222
105.365547,6.09,-15.542,3.088
105.376397,6.79,-15.518,2.95
105.387247,8.75,-15.692,3.133
105.398097,9.1,-16.398,3.506
105.408947,8.12,-15.713,4.053
105.419797,6.44,-15.173,4.219
105.430647,4.34,-15.226,3.712
105.441525,2.87,-14.606,2.613
105.452403,3.22,-14.107,2.204
105.463281,3.64,-14.095,2.135
105.474159,3.5,-14.091,1.709
105.485037,3.57,-13.937,1.239
105.495915,3.92,-14.014,0.87
105.506793,3.92,-13.629,0.298
105.517671,3.78,-13.467,0.184
105.528549,3.99,-13,-0.444
105.539427,4.2,-12.323,-1.462
105.550305,4.97,-11.395,-2.294
105.561183,3.78,-10.884,-2.772
105.572093,2.87,-10.182,-2.719
105.583003,1.89,-9.339,-3.068
105.593913,0.21,-7.936,-4.171
105.604823,-0.49,-6.866,-5.404
105.615733,-0.49,-6.067,-5.903
105.626643,0.63,-5.171,-5.745
105.637553,1.47,-4.23,-5.437
105.648463,2.31,-4.052,-4.837
105.659373,2.73,-3.901,-3.673
105.670283,2.87,-3.407,-2.449
105.681193,3.22,-2.823,-2.133
105.692103,4.27,-2.64,-1.958
105.702998,4.55,-2.093,-1.435
105.713893,4.06,-2.137,-1.585
105.724788,3.43,-2.94,-1.869
105.735683,2.31,-4.197,-1.593
105.746578,0.49,-5.766,-1.159
105.757473,-0.42,-7.372,-0.518
105.768368,-1.54,-9.257,0.5
105.779263,-2.59,-11.427,1.113
105.790158,-3.01,-12.895,1.778
105.801053,-3.64,-13.953,1.733
105.811948,-4.69,-16.001,1.657
105.822843,-5.95,-18.495,1.288
105.833738,-7.7,-21.09,0.688
105.844633,-9.52,-23.876,0.766
105.855485,-11.27,-26.564,0.292
105.866337,-12.11,-29.281,-0.827
105.877189,-12.39,-31.726,-1.472
105.888041,-12.18,-34.675,-2.489
105.898893,-12.32,-38.036,-3.579
105.909745,-12.18,-41.945,-3.984
105.920597,-12.18,-45.972,-4.126
105.931449,-12.04,-49.901,-3.61
105.942301,-12.11,-53.352,-3.792
105.953153,-11.83,-56.807,-4.757
105.964005,-11.13,-59.808,-6.281
105.974857,-10.85,-63.385,-7.765
105.985702,-10.78,-66.284,-9.058
105.996547,-11.62,-70.011,-9.288
106.007392,-12.53,-73.526,-9.908
106.018237,-12.67,-76.811,-9.421
106.029082,-11.76,-79.978,-9.198
106.039927,-9.59,-83.846,-9.027
106.050772,-7.28,-88.4,-8.195
106.061617,-6.93,-94.162,-6.155
106.072462,-8.4,-99.944,-3.194
106.083307,-10.5,-103.102,-1.405
106.094152,-11.97,-104.708,-1.972
106.104962,-12.46,-105.304,-2.22
106.115772,-10.92,-104.493,-1.579
106.126582,-10.22,-102.733,-1.482
106.137392,-10.43,-100.544,-1.807
106.148202,-10.85,-97.965,-1.921
106.159012,-10.36,-95.86,-1.763
106.169822,-8.47,-93.078,-1.414
106.180632,-4.48,-90.203,-1.192
106.191442,0.98,-86.627,0.292
106.202252,4.62,-81.606,2.457
106.213062,5.11,-76.29,3.749
106.223872,4.41,-69.997,3.935
106.234682,2.73,-64.178,3.184
106.24546,1.19,-58.116,2.263
106.256238,0,-51.762,0.895
106.267016,0.63,-46.146,-0.318
106.277794,0.98,-41.166,-1.146
106.288572,-0.77,-36.767,-1.507
106.29935,-4.06,-33.474,-0.429
106.310128,-6.51,-31.248,1.456
106.320906,-8.33,-29.123,3.11
106.331684,-9.1,-26.479,3.434
106.342462,-9.8,-24.042,3.722
106.35324,-9.87,-21.771,3.34
106.364018,-10.08,-19.626,2.866
106.374796,-10.71,-17.327,1.92
106.385521,-10.92,-15.636,0.797
106.396246,-9.38,-14.051,-0.132
106.406971,-7.63,-12.749,-0.258
106.417696,-6.09,-11.172,-0.335
106.428421,-3.08,-8.743,-0.404
106.439146,-0.63,-5.349,-0.303
106.449871,1.68,-2.368,0.933
106.460596,3.29,0.3,2.328
106.471321,5.67,2.989,2.802
106.482046,7.42,6.124,3.568
106.492771,9.52,8.334,4.739
106.503496,11.41,9.972,5.526
106.514204,13.16,11.825,5.497
106.524912,14.7,13.788,4.848
106.53562,14.63,15.13,4.089
106.546328,14.84,15.649,2.759
106.557036,14.77,15.778,1.218
106.567744,15.54,15.656,-0.509
106.578452,16.59,15.798,-2.119
106.58916,16.8,15.794,-4.11
106.599868,15.54,16.758,-6.357
106.610576,12.74,17.492,-8.502
106.621284,9.52,17.914,-9.28
106.631992,6.72,16.774,-9.268
106.6427,5.32,15.517,-8.992
106.653408,4.27,14.654,-7.723
106.664116,4.2,13.778,-6.384
106.674824,4.27,12.586,-5.671
106.685462,4.34,11.572,-4.357
106.6961,3.15,11.021,-3.246
106.706738,1.75,9.837,-2.175
106.717376,1.26,9.448,-1.177
106.728014,0.84,9.797,-0.334
106.738652,0.42,10.154,-0.342
106.74929,0.14,10.328,-0.525
106.759928,0.21,10.819,-0.083
106.770566,-0.77,10.973,0.655
106.781204,-0.28,11.127,1.393
106.791842,0.56,11.488,2.168
106.80248,1.19,11.679,2.699
106.813076,2.31,12.084,3.623
106.823672,3.71,12.247,4.718
106.834268,4.2,12.206,5.351
106.844864,4.97,12.214,5.708
106.85546,5.67,12.036,6.316
106.866056,7.07,12.413,6.596
106.876652,7.77,12.421,6.953
106.887248,6.79,11.992,7.374
106.897844,5.18,11.148,7.723
106.90844,4.48,10.341,7.865
106.919036,2.59,9.725,7.33
106.929632,2.03,9.056,7.496
106.940206,1.82,8.322,7.225
106.95078,2.24,7.385,6.491
106.961354,3.22,6.319,6.09
106.971928,3.43,5.986,4.752
106.982502,3.5,5.641,3.482
106.993076,3.78,5.029,2.522
107.00365,4.62,4.404,1.629
107.014224,5.67,4.136,0.729
107.024798,8.26,3.427,0.32
107.035372,11.48,2.697,-0.377
107.045946,14.63,1.691,0.085
107.05652,18.06,0.434,0.361
107.0671,22.33,-0.479,-0.511
107.07768,25.13,-0.657,-1.111
107.08826,24.85,-0.734,-0.272
107.09884,22.61,-0.819,0.211
107.10942,19.6,-0.62,-0.109
107.12,17.64,-0.544,-0.949
107.13058,15.54,-0.365,-1.557
107.14116,14,-0.398,-1.776
107.15174,13.02,-0.608,-1.387
107.16232,11.9,-0.888,-1.01
107.1729,10.15,-0.71,-0.409
107.18348,7.91,-1.131,-0.839
107.194072,5.74,-1.253,-0.15
107.204664,4.06,-1.727,0.122
107.215256,3.15,-2.133,0.406
107.225848,2.66,-2.571,0.471
107.23644,2.45,-2.421,0.426
107.247032,1.89,-2.409,0.357
107.257624,1.61,-1.926,0.442
107.268216,1.12,-1.703,-0.016
107.278808,0.35,-0.718,-0.766
107.2894,-0.14,-0.235,-1.89
107.299992,-0.63,-0.098,-1.865
107.310584,-0.84,-0.077,-1.577
107.32116,-2.03,-0.085,-1.934
107.331736,-2.31,-0.073,-2.003
107.342312,-3.01,-0.564,-1.237
107.352888,-2.59,-1.148,-0.345
107.363464,-2.8,-1.926,0.442
107.37404,-3.08,-2.611,1.103
107.384616,-4.06,-2.875,0.986
107.395192,-4.34,-2.915,0.41
107.405768,-5.39,-3.098,0.236
107.416344,-6.3,-3.418,0.037
107.42692,-7.35,-3.41,-0.815
107.437496,-8.82,-3.317,-2.149
107.448072,-9.8,-3.05,-3.665
107.458667,-10.99,-2.908,-4.067
107.469262,-11.97,-2.73,-4.675
107.479857,-13.02,-2.945,-5.068
107.490452,-14.49,-3.079,-5.518
107.501047,-17.71,-3.131,-6.025
107.511642,-21.77,-3.691,-6.479
107.522237,-25.55,-4.733,-5.81
107.532832,-28.49,-5.669,-4.127
107.543427,-29.82,-6.407,-1.556
107.554022,-30.31,-7.092,0.313
107.564617,-29.61,-6.991,0.544
107.575212,-26.88,-7.153,0.658
107.585825,-21.21,-6.865,0.638
107.596438,-15.96,-6.618,0.041
107.607051,-12.67,-6.63,-1.098
107.617664,-11.55,-7.19,-1.552
107.628277,-11.06,-8.114,-1.146
107.63889,-10.78,-9.027,-0.81
107.649503,-11.13,-10.385,-0.765
107.660116,-12.32,-12.117,-1.426
107.670729,-14,-13.654,-3.189
107.681342,-16.17,-15.487,-4.081
107.691955,-16.52,-17.794,-4.701
107.702568,-16.31,-19.821,-4.49
107.713181,-14.42,-21.626,-3.529
107.723828,-13.72,-23.742,-2.409
107.734475,-11.76,-26.033,-1.107
107.745122,-10.71,-27.631,-0.11
107.755769,-9.24,-29.241,-0.251
107.766416,-7.56,-31.138,-0.373
107.777063,-5.39,-32.108,-1.326
107.78771,-3.57,-32.14,-1.545
107.798357,-3.5,-31.589,-1.447
107.809004,-4.83,-30.117,-1.33
107.819651,-4.13,-30.133,-2.044
107.830298,-3.22,-30.502,-1.966
107.840945,-0.91,-30.575,-1.553
107.851629,1.4,-30.571,-0.77
107.862313,2.38,-30.384,0.187
107.872997,3.57,-30.104,1.018
107.883681,3.71,-29.289,2.441
107.894365,3.85,-27.947,2.891
107.905049,4.76,-26.653,2.408
107.915733,5.74,-25.246,2.088
107.926417,7.21,-22.716,1.041
107.937101,8.54,-19.833,0.412
107.947785,9.45,-17.108,0.68
107.958469,10.5,-14.119,1.064
107.969153,11.55,-11.236,1.644
107.979857,12.88,-7.956,2.791
107.990561,12.74,-4.298,4.218
108.001265,11.2,-0.814,5.827
108.011969,9.8,1.886,6.232
108.022673,8.96,4.023,6.609
108.033377,8.12,6.213,7.493
108.044081,7.42,7.9,8.003
108.054785,7.14,8.979,8.336
108.065489,6.44,10.066,7.817
108.076193,4.69,11.071,7.354
108.086897,3.22,12.34,7.009
108.097601,1.33,13.601,6.308
108.108305,-0.21,14.197,5.347
108.119003,-2.03,15.146,3.595
108.129701,-3.36,16.082,1.912
108.140399,-4.2,17.388,0.152
108.151097,-5.53,19.103,-1.11
108.161795,-6.51,20.185,-2.411
108.172493,-7,20.274,-3.32
108.183191,-7.21,19.33,-4.41
108.193889,-6.93,18.648,-6.592
108.204587,-6.65,19.386,-9.163
108.215285,-7.49,21.405,-10.939
108.225983,-9.66,23.481,-12.635
108.236681,-11.13,24.369,-12.833
108.247398,-11.97,24.324,-11.775
108.258115,-11.62,24.146,-9.958
108.268832,-11.41,23.575,-7.927
108.279549,-9.8,23.457,-6.455
108.290266,-7.77,23.684,-6.13
108.300983,-6.09,24.666,-5.247
108.3117,-5.74,24.946,-4.415
108.322417,-5.46,24.273,-3.823
108.333134,-5.18,22.809,-2.375
108.343851,-5.39,21.114,-0.826
108.354568,-6.58,19.338,0.78
108.365285,-6.23,16.975,2.496
108.376031,-6.02,15.073,4.008
108.386777,-5.39,13.589,5.168
108.397523,-3.78,12.478,5.825
108.408269,-1.61,11.229,6.458
108.419015,-0.14,10.11,6.758
108.429761,0.56,8.784,7.022
108.440507,-0.28,7.681,6.828
108.451253,-0.56,7.353,6.272
108.461999,-0.98,7.62,4.755
108.472745,-1.96,8.475,3.129
108.483491,-2.73,10.393,1.122
108.494237,-3.57,12.899,-0.995
108.504968,-4.9,15.648,-3.283
108.515699,-7.28,19.074,-5.38
108.52643,-10.78,22.504,-7.902
108.537161,-13.23,25.902,-10.644
108.547892,-15.61,29.044,-13.146
108.558623,-17.64,31.902,-16.054
108.569354,-21,34.079,-19.935
108.580085,-25.48,35.616,-24.213
108.590816,-29.89,35.757,-28.24
108.601547,-31.99,34.905,-31.873
108.612278,-31.64,33.145,-34.387
108.623009,-30.1,30.841,-35.433
108.63374,-27.86,28.177,-34.836
108.644471,-25.97,25.773,-33.697
108.655202,-24.71,24.029,-31.872
108.665933,-23.52,23.284,-29.657
108.676664,-21.77,23.308,-27.378
108.687395,-20.58,23.495,-25.213
108.698126,-19.81,23.256,-23.052
108.708857,-18.41,23.013,-20.465
108.719588,-18.27,22.438,-18.007
108.730319,-17.85,21.96,-16.101
108.74105,-17.43,21.291,-13.518
108.751781,-17.29,20.967,-10.874
108.762512,-17.29,20.598,-8.38
108.77327,-17.64,20.075,-6.625
108.784028,-17.57,19.39,-4.755
108.794786,-16.59,17.923,-2.882
108.805544,-15.68,16.491,-1.215
108.816302,-15.05,14.152,0.363
108.82706,-14,11.468,1.88
108.837818,-14.28,8.836,2.695
108.848576,-15.75,5.572,3.47
108.859334,-17.85,3.334,4.071
108.870092,-18.97,1.501,4.387
108.88085,-20.16,-0.571,4.448
108.891608,-21.14,-1.897,4.712
108.902382,-23.59,-4.383,5.909
108.913156,-26.39,-8.158,5.954
108.92393,-29.26,-12.825,5.415
108.934704,-31.99,-16.605,4.678
108.945478,-36.26,-20.526,3.133
108.956252,-42.49,-25.295,1.155
108.967026,-50.54,-32.489,-1.18
108.9778,-59.36,-42.768,-2.139
108.988574,-68.46,-56.377,-2.762
108.999348,-75.74,-69.953,-3.165
109.010122,-80.15,-81.587,-3.298
109.020896,-83.86,-91.404,-3.252
109.03167,-86.45,-99.49,-4.962
109.042415,-88.41,-106.651,-7.077
109.05316,-90.86,-112.71,-8.999
109.063905,-91.98,-118.188,-10.178
109.07465,-91.98,-122.957,-10.948
109.085395,-90.58,-125.994,-12.265
109.09614,-87.22,-127.223,-13.761
109.106885,-82.18,-126.789,-14.609
109.11763,-75.46,-124.393,-14.897
109.128375,-68.88,-121.299,-15.915
109.13912,-62.44,-116.952,-16.784
109.149865,-56.42,-111.3,-16.995
109.16061,-52.01,-105.7,-16.505
109.171355,-47.04,-99.71,-14.596
109.182071,-41.23,-93.222,-13.097
109.192787,-35.84,-87.123,-11.808
109.203503,-30.87,-80.943,-9.368
109.214219,-27.02,-75.286,-6.38
109.224935,-24.92,-70.671,-2.723
109.235651,-21.35,-66.445,0.723
109.246367,-19.18,-62.669,4.303
109.257083,-17.29,-58.387,7.83
109.267799,-14.77,-54.21,10.344
109.278515,-11.41,-49.567,11.02
109.289231,-8.33,-45.025,11.466
109.299947,-6.02,-40.743,11.368
109.310664,-4.55,-37.105,12.507
109.321381,-3.71,-33.561,13.771
109.332098,-3.5,-29.976,15.612
109.342815,-3.78,-26.55,17.14
109.353532,-3.36,-23.857,17.188
109.364249,-3.5,-21.647,17.152
109.374966,-3.08,-19.579,17.516
109.385683,-2.24,-17.26,16.859
109.3964,-1.54,-14.413,15.228
109.407117,-1.96,-11.855,13.618
109.417834,-3.15,-9.223,11.595
109.428551,-4.55,-6.527,10.009
109.439233,-6.65,-5.307,8.731
109.449915,-10.36,-4.767,8.897
109.460597,-14.21,-5.031,9.988
109.471279,-16.94,-4.877,10.726
109.481961,-19.11,-4.532,10.787
109.492643,-19.6,-3.822,11.196
109.503325,-19.67,-2.326,9.967
109.514007,-21.28,-0.765,9.177
109.524689,-24.15,0.273,7.725
109.535371,-26.18,0.593,6.715
109.546053,-26.6,0.139,6.066
109.556735,-26.25,-0.425,6.038
109.567417,-24.78,-1.759,5.945
109.578075,-22.82,-3.073,6.14
109.588733,-21.28,-3.993,6.12
109.599391,-20.09,-3.884,5.499
109.610049,-19.6,-3.138,4.493
109.620707,-18.9,-2.011,3.342
109.631365,-17.36,-1.103,2.222
109.642023,-15.47,-0.624,1.525
109.652681,-14.14,-0.393,1.423
109.663339,-12.88,0.503,1.581
109.673997,-11.9,1.18,1.772
109.684655,-11.2,1.464,2.177
109.695313,-11.13,1.931,2.757
109.705958,-11.06,1.845,3.24
109.716603,-10.99,1.679,3.779
109.727248,-10.64,1.691,3.71
109.737893,-10.99,1.635,3.629
109.748538,-9.8,1.229,3.913
109.759183,-9.31,0.808,4.692
109.769828,-8.75,0.528,5.069
109.780473,-8.75,-0.49,4.392
109.791118,-8.75,-0.969,3.881
109.801763,-9.31,-1.115,3.5
109.812408,-10.5,-1.561,3.208
109.823053,-12.39,-1.686,3.114
109.833707,-13.72,-1.897,3.504
109.844361,-15.82,-1.613,3.909
109.855015,-17.64,-1.536,4.278
109.865669,-18.34,-1.471,4.716
109.876323,-18.76,-1.256,5.109
109.886977,-19.81,-0.766,5.551
109.897631,-20.79,0.281,5.665
109.908285,-21.14,1.254,4.983
109.918939,-21.7,1.89,4.598
109.929593,-21.98,2.255,3.738
109.940247,-21.84,2.283,3.175
109.950901,-21.84,2.425,2.773
109.961584,-20.51,2.904,2.076
109.972267,-19.46,2.928,1.938
109.98295,-18.62,3.204,1.986
109.993633,-17.78,3.532,1.334
110.004316,-16.87,2.924,1.155
110.014999,-15.75,2.648,1.107
110.025682,-15.33,1.959,0.985
110.036365,-15.05,0.58,0.742
110.047048,-14.56,-0.803,-0.284
110.057731,-14.56,-1.683,-0.936
110.068414,-14.84,-2.433,-1.922
110.079097,-15.61,-3.131,-2.4
110.089765,-16.31,-2.924,-2.364
110.100433,-16.8,-2.847,-1.995
110.111101,-17.01,-2.567,-1.163
110.121769,-17.15,-2.47,-0.507
110.132437,-17.22,-2.023,-0.215
110.143105,-17.29,-1.006,-0.746
110.153773,-17.85,0.361,-0.434
110.164441,-19.04,2.218,-0.888
110.175109,-18.76,3.402,-1.959
110.185777,-19.53,4.728,-2.223
110.196445,-21.21,5.425,-1.744
110.207113,-22.05,6.082,-0.633
110.217781,-23.66,6.857,0.214
110.228436,-25.48,7.108,0.4
110.239091,-27.86,7.279,0.644
110.249746,-31.85,8.118,0.721
110.260401,-36.47,9.452,-0.395
110.271056,-39.48,10.839,-2.211
110.281711,-39.55,11.885,-4.515
110.292366,-38.57,12.31,-5.719
110.303021,-36.82,12.675,-6.579
110.313676,-34.09,12.05,-8.679
110.324331,-31.64,11.028,-10.139
110.334986,-28.56,9.507,-11.189
110.345641,-24.5,7.516,-11.185
110.35632,-21.7,5.854,-11.833
110.366999,-19.88,4.56,-12.559
110.377678,-18.83,3.489,-13.743
110.388357,-20.93,2.496,-15.766
110.399036,-25.76,1.413,-18.09
110.409715,-30.87,-0.059,-19.415
110.420394,-35.98,-1.308,-18.783
110.431073,-38.01,-1.855,-16.889
110.441752,-37.66,-1.596,-15.137
110.452431,-35.7,-1.401,-15.032
110.46311,-31.99,-0.626,-14.184
110.473789,-27.09,0.018,-13.004
110.484488,-22.47,0.854,-11.293
110.495187,-18.9,1.621,-9.594
110.505886,-15.89,2.813,-9.1
110.516585,-14.28,5.023,-7.928
110.527284,-14.35,7.424,-7.434
110.537983,-14.07,9.151,-6.347
110.548682,-12.53,9.537,-3.294
110.559381,-11.62,9.688,2.703
110.57008,-9.59,12.044,6.673
110.580779,-7.63,16.042,6.169
110.591478,-7.56,20.389,4.093
110.602177,-9.66,23.961,2.377
110.612876,-14.77,26.435,1.249
110.6236,-22.96,28.742,0.661
110.634324,-34.23,30.149,-0.868
110.645048,-44.8,31.182,-3.102
110.655772,-48.72,30.971,-3.921
110.666496,-47.11,30.935,-2.506
110.67722,-40.04,30.015,-2.526
110.687944,-31.22,29.005,-1.638
110.698668,-26.39,27.902,-0.624
110.709392,-24.36,26.004,-1.954
110.720116,-23.8,23.515,-2.749
110.73084,-22.89,19.865,-2.61
110.741564,-18.2,16.118,-3.129
110.752278,-11.62,12.61,-5.809
110.762992,-6.16,8.672,-9.275
110.773706,-2.31,4.179,-11.205
110.78442,-1.54,0.387,-13.081
110.795134,-3.22,-3.372,-15.948
110.805848,-4.55,-6.053,-19.69
110.816562,-5.11,-8.065,-23.599
110.827276,-5.74,-9.618,-26.076
110.83799,-9.45,-10.291,-27.901
110.848704,-14,-9.541,-29.332
110.859418,-17.36,-5.977,-31.405
110.870132,-22.33,-0.694,-32.748
110.880846,-27.44,5.522,-34.14
110.891551,-30.73,10.453,-35.9
110.902256,-30.45,13.689,-34.903
110.912961,-28.56,15.234,-30.366
110.923666,-24.01,16.78,-25.829
110.934371,-17.15,18.435,-23.12
110.945076,-10.71,20.235,-23.656
110.955781,-5.32,22.015,-28.104
110.966486,-0.63,24.861,-32.151
110.977191,1.19,26.941,-31.856
110.987896,2.31,27.282,-26.536
110.998601,3.22,26.643,-18.474
111.009306,4.83,25.703,-9.115
111.020011,6.23,26.812,0.321
111.030719,9.24,29.598,7.494
111.041427,12.6,31.464,12.23
111.052135,14.21,33.233,17.517
111.062843,13.65,33.927,22.046
111.073551,10.71,33.173,25.112
111.084259,5.53,29.763,26.714
111.094967,1.75,25.834,27.23
111.105675,0.98,22.436,26.346
111.116383,3.15,19.625,24.145
111.127091,6.16,17.366,20.832
111.137799,8.47,14.434,16.903
111.148507,9.73,12.593,13.238
111.159215,11.27,12.179,10.748
111.169904,12.46,12.677,7.922
111.180593,11.97,13.54,5.444
111.191282,10.92,15.503,4.795
111.201971,10.22,18.341,5.224
111.21266,9.8,21.597,4.093
111.223349,9.52,23.751,3.975
111.234038,9.59,24.659,6.48
111.244727,10.71,24.769,10.694
111.255416,12.46,24.656,15.365
111.266105,15.54,24.43,19.874
111.276794,18.9,24.759,22.846
111.287483,20.93,24.65,24.675
111.298169,21.63,24.224,25.88
111.308855,21.91,24.273,26.812
111.319541,21.14,25.258,26.062
111.330227,19.25,26.178,23.665
111.340913,18.13,27.005,21.394
111.351599,17.43,26.324,20.421
111.362285,16.87,25.022,20.547
111.372971,14.49,23.627,20.799
111.383657,11.62,21.721,20.321
111.394343,9.31,19.523,19.08
111.405029,8.4,18.011,17.178
111.415715,7.7,16.259,16.23
111.426394,6.86,14.304,16.027
111.437073,4.62,12.398,16.758
111.447752,0.84,12.033,16.409
111.458431,-2.38,11.989,15.05
111.46911,-3.85,12.706,13.4
111.479789,-3.71,13.776,12.167
111.490468,-5.04,14.875,11.579
111.501147,-8.4,15.958,10.277
111.511826,-11.97,16.237,8.692
111.522505,-12.81,16.075,8.805
111.533184,-11.83,15.593,11.137
111.543863,-11.97,15.208,12.917
111.554526,-13.58,14.288,14.105
111.565189,-16.52,12.508,14.929
111.575852,-18.76,10.582,16.579
111.586515,-21.07,7.529,18.173
111.597178,-22.33,4.848,19.265
111.607841,-21.42,2.318,20.311
111.618504,-20.86,-0.228,21.852
111.629167,-21.49,-2.819,23.244
111.63983,-20.37,-4.526,22.445
111.650493,-18.62,-6.096,21.671
111.661156,-17.71,-7.791,20.803
111.671819,-17.08,-8.825,18.204
111.682482,-15.96,-9.304,15.276
111.693169,-14.56,-9.013,12.414
111.703856,-12.95,-8.989,9.859
111.714543,-11.55,-9.017,8.006
111.72523,-11.41,-9.415,6.23
111.735917,-10.43,-9.966,4.924
111.746604,-8.61,-10.307,4.438
111.757291,-6.16,-10.559,4.251
111.767978,-4.34,-10.06,3.841
111.778665,-2.31,-7.339,3.326
111.789352,0.49,-2.433,1.703
111.800039,3.71,3.751,1.301
111.810726,6.58,13.418,3.717
111.821396,9.87,25.426,9.388
111.832066,12.67,39.879,14.495
111.842736,13.65,59.335,17.428
111.853406,14.28,83.284,18.666
111.864076,18.2,104.026,20.759
111.874746,17.71,109.477,29.752
111.885416,5.18,97.607,53.533
111.896086,-18.27,71.643,83.073
111.906756,-44.73,34.51,102.185
111.917426,-70.56,-10.105,116.566
111.928096,-92.33,-55.689,133.62
111.938766,-107.38,-98.849,144.988
111.949436,-118.09,-135.234,146.96
111.960109,-124.81,-163.595,144.944
111.970782,-126.07,-179.986,140.348
111.981455,-120.68,-184.464,128.257
111.992128,-108.08,-175.805,108.175
112.002801,-89.95,-154.937,85.768
112.013474,-69.09,-127.991,63.154
112.024147,-50.19,-98.835,41.711
112.03482,-32.83,-70.249,23.508
112.045493,-17.15,-44.466,8.295
112.056166,-5.39,-24.01,-3.31
112.066839,0.84,-7.726,-10.603
112.077512,2.52,3.66,-14.708
112.088185,2.73,11.104,-17.02
112.098858,2.59,14.887,-19.125
112.109531,1.54,15.074,-18.168
112.120204,-0.28,13.578,-15.731
112.130877,-1.61,13.079,-14.113
112.14155,-2.17,13.85,-14.048
112.152223,-2.94,15.156,-14.6
112.162896,-4.55,17.625,-15.302
112.173569,-5.88,20.775,-17.447
112.184242,-6.86,23.403,-20.254
112.194915,-7.35,26.257,-22.736
112.205588,-6.93,29.148,-24.216
112.216261,-5.53,30.348,-24.573
112.22694,-4.06,30.912,-24.545
112.237619,-3.29,30.247,-23.596
112.248298,-2.1,28.856,-22.562
112.258977,-1.33,26.91,-19.991
112.269656,-0.14,24.725,-16.467
112.280335,0.84,22.382,-12.046
112.291014,1.61,19.67,-7.549
112.301693,1.4,16.832,-3.145
112.312372,0.35,14.217,-0.407
112.323051,0.28,12.108,-0.14
112.33373,0.42,10.77,0.193
112.344409,1.4,10.511,0.858
112.355118,2.59,11.281,0.923
112.365827,2.8,11.82,-0.119
112.376536,2.8,12.311,-0.886
112.387245,3.43,12.124,-0.634
112.397954,3.99,11.784,0.088
112.408663,4.34,11.103,1.531
112.419372,5.18,11.407,2.225
112.430081,6.86,12.34,2.176
112.44079,9.24,14.456,2.265
112.451499,12.18,16.236,1.441
112.462208,14.49,17.68,-0.294
112.472917,17.08,18.811,-1.872
112.483619,21,19.074,-2.963
112.494321,24.08,19.386,-3.121
112.505023,26.18,19.829,-2.403
112.515725,27.44,19.983,-1.665
112.526427,27.16,20.802,-0.668
112.537129,24.29,20.68,0.021
112.547831,21.42,20.311,0.099
112.558533,19.46,19.002,-0.132
112.569235,18.55,17.331,-1.138
112.579937,18.41,15.064,-2.39
112.590639,17.64,12.574,-3.185
112.601341,13.79,10.762,-2.58
112.612043,8.75,9.087,-1.952
112.622745,4.13,7.189,-2.073
112.63347,-0.49,5.624,-2.065
112.644195,-3.64,4.456,-1.489
112.65492,-5.11,4.128,-2.044
112.665645,-7,3.527,-3.074
112.67637,-7,3.84,-3.232
112.687095,-5.6,4.034,-3.127
112.69782,-3.64,3.085,-2.583
112.708545,-1.19,2.076,-1.695
112.71927,2.17,0.616,-0.673
112.729995,4.97,-0.555,0.329
112.74072,6.72,-1.472,1.091
112.751438,8.61,-2.299,-0.263
112.762156,9.66,-3.139,-1.549
112.772874,10.22,-4.396,-2.481
112.783592,10.43,-5.787,-2.655
112.79431,10.22,-5.43,-2.663
112.805028,10.57,-4.858,-3.487
112.815746,11.13,-4.303,-5.024
112.826464,12.25,-3.598,-6.605
112.837182,14,-3.302,-7.477
112.8479,14.35,-3.776,-7.205
112.858618,14.42,-4.129,-6.414
112.869336,12.88,-4.185,-5.287
112.880054,10.85,-2.515,-5.49
112.890756,8.19,0.246,-7.846
112.901458,4.69,2.715,-12.173
112.91216,0,5.659,-15.564
112.922862,-5.11,6.992,-17.888
112.933564,-9.17,6.96,-18.107
112.944266,-11.62,5.679,-16.484
112.954968,-10.22,3.952,-15.154
112.96567,-6.23,2.719,-12.599
112.976372,-4.27,3.287,-9.372
112.987074,-5.11,2.371,-9.817
112.997776,-4.13,2.371,-8.609
113.008478,-3.08,2.793,-5.763
113.01918,-4.41,2.777,-5.268
113.029864,-3.85,3.361,-6.16
113.040548,-1.68,4.078,-6.602
113.051232,1.26,4.865,-5.824
113.061916,3.43,4.529,-4.319
113.0726,4.06,3.686,-2.762
113.083284,4.69,3.422,-0.463
113.093968,5.67,3.094,1.399
113.104652,5.46,3.009,1.881
113.115336,5.25,3.07,1.536
113.12602,5.95,2.94,0.661
113.136704,7.07,2.466,0.932
113.147388,7.7,2.08,1.504
113.158103,7.63,1.071,1.184
113.168818,7.35,0.239,1.464
113.179533,5.53,-0.653,2.088
113.190248,4.13,-1.313,2.612
113.200963,2.45,-1.889,2.652
113.211678,0.56,-2.027,2.628
113.222393,-1.33,-2.368,2.141
113.233108,-2.73,-2.875,2.194
113.243823,-4.41,-3.349,2.466
113.254538,-5.95,-4.205,2.884
113.265253,-7.77,-4.565,3.318
113.275968,-9.1,-4.565,3.318
113.28668,-9.87,-4.192,2.815
113.297392,-9.45,-3.966,1.931
113.308104,-8.68,-3.532,1.083
113.318816,-6.93,-2.956,-0.166
113.329528,-4.27,-3.037,-1.317
113.34024,-2.24,-2.445,-1.853
113.350952,-1.19,-1.606,-1.776
113.361664,-1.82,-1.055,-1.679
113.372376,-4.34,-0.734,-1.48
113.383088,-6.72,-0.385,-0.637
113.3938,-9.03,-0.203,-0.462
113.404512,-9.8,-0.227,-0.324
113.415224,-8.89,-0.178,0.608
113.425952,-7.28,-0.28,1.586
113.43668,-5.95,-0.446,2.125
113.447408,-5.32,-0.174,1.391
113.458136,-5.39,0.718,0.766
113.468864,-3.99,1.683,-0.272
113.479592,-3.64,2.506,-0.909
113.49032,-4.34,2.794,-2.137
113.501048,-3.85,2.473,-2.336
113.511776,-3.43,2.417,-1.209
113.522504,-3.08,2.498,-1.266
113.533232,-3.57,2.789,-2.92
113.54396,-3.43,3.106,-3.504
113.554666,-3.5,3.848,-4.084
113.565372,-3.78,4.326,-4.781
113.576078,-4.13,4.549,-5.24
113.586784,-4.34,5.206,-5.337
113.59749,-3.99,5.157,-5.061
113.608196,-3.29,5.121,-4.855
113.618902,-4.48,5.02,-3.877
113.629608,-5.6,4.087,-3.828
113.640314,-5.95,3.479,-4.007
113.65102,-4.97,2.814,-3.058
113.661726,-3.85,2.562,-2.036
113.672432,-3.22,1.857,-1.663
113.683138,-2.87,1.443,-1.736
113.693861,-2.8,0.908,-2.328
113.704584,-2.52,0.438,-2.482
113.715307,-2.94,0.121,-3.106
113.72603,-3.5,-0.151,-3.581
113.736753,-2.66,-0.272,-4.1
113.747476,-1.4,-0.029,-3.062
113.758199,-1.4,-0.146,-2.798
113.768922,-1.54,-0.495,-3.641
113.779645,-0.84,-0.816,-3.84
113.790368,-0.7,-1.294,-3.142
113.801091,-1.68,-2.024,-2.631
113.811814,-2.17,-2.766,-3.26
113.822561,-2.87,-3.188,-3.69
113.833308,-3.29,-2.916,-3.215
113.844055,-3.99,-2.79,-3.122
113.854802,-4.62,-2.685,-3.317
113.865549,-6.79,-2.385,-3.406
113.876296,-8.61,-2.06,-3.633
113.887043,-9.87,-1.302,-3.499
113.89779,-10.92,-0.775,-3.264
113.908537,-10.29,0.093,-3.751
113.919284,-9.8,0.575,-3.666
113.930031,-9.87,1.423,-3.232
113.940778,-9.38,2.112,-3.11
113.951515,-8.47,2.862,-3.334
113.962252,-8.26,3.604,-3.914
113.972989,-7.84,4.553,-4.457
113.983726,-7.42,4.959,-4.741
113.994463,-6.86,5.676,-5.183
114.0052,-6.23,6.406,-5.694
114.015937,-6.51,7.643,-6.258
114.026674,-7.98,8.393,-7.689
114.037411,-11.69,9.613,-10.175
114.048148,-20.09,12.297,-14.109
114.058885,-33.39,17.287,-22.256
114.069622,-47.74,24.272,-34.459
114.080359,-58.45,31.902,-49.106
114.091084,-66.22,38.064,-61.88
114.101809,-69.65,40.609,-69.464
114.112534,-69.37,39.887,-71.013
114.123259,-64.75,38.221,-68.819
114.133984,-58.17,36.364,-65.947
114.144709,-52.43,34.799,-63.522
114.155434,-48.58,33.96,-61.182
114.166159,-46.9,33.527,-57.918
114.176884,-44.94,33.535,-53.936
114.187609,-42.98,32.993,-47.635
114.198334,-39.97,31.778,-39.532
114.209059,-35.21,29.637,-32.233
114.219784,-27.79,26.715,-26.138
114.230532,-19.95,22.507,-19.204
114.24128,-12.67,18.29,-12.626
114.252028,-6.86,15.201,-7.2
114.262776,-1.82,12.894,-4.195
114.273524,1.33,12.088,-1.636
114.284272,4.41,10.94,0.436
114.29502,6.93,10.016,2.05
114.305768,8.61,9.043,2.732
114.316516,8.89,8.062,3.056
114.327264,7.98,8.082,2.136
114.338012,6.09,7.327,0.368
114.348772,3.29,5.839,-0.463
114.359532,1.12,4.087,-0.203
114.370292,-0.77,2.328,0.908
114.381052,-1.96,1.44,2.315
114.391812,-2.24,1.42,3.236
114.402572,-2.52,1.732,3.077
114.413332,-4.55,2.194,2.875
114.424092,-7.7,2.336,2.473
114.434852,-10.01,2.064,1.999
114.445612,-11.76,1.606,1.776
114.456372,-12.74,1.736,1.443
114.467132,-11.83,1.853,1.18
114.477892,-9.17,2.255,1.322
114.488654,-6.93,2.705,2.396
114.499416,-5.74,3.419,3.588
114.510178,-4.62,4.271,4.805
114.52094,-3.5,4.567,6.349
114.531702,-3.29,4.539,8.122
114.542464,-1.75,4.855,8.746
114.553226,-0.56,5.593,8.592
114.563988,-0.42,6.396,8.875
114.57475,-1.12,7.243,8.101
114.585512,-1.54,7.158,7.375
114.596274,-2.66,7.211,6.674
114.607036,-2.03,7.324,5.627
114.617798,0.35,7.413,4.719
114.628553,2.03,7.49,5.088
114.639308,2.17,7.227,4.97
114.650063,1.33,8.086,4.127
114.660818,1.12,9.282,2.987
114.671573,0.28,10.483,2.63
114.682328,-1.47,11.472,2.663
114.693083,-2.24,13.07,2.873
114.703838,-2.38,15.178,2.605
114.714593,-1.33,17.915,2.804
114.725348,0.21,20.409,3.172
114.736103,1.89,23.365,4.546
114.746858,2.87,26.143,6.529
114.757572,3.15,29.116,8.617
114.768286,2.59,31.095,11.098
114.779,-1.61,33.383,13.847
114.789714,-6.3,35.585,14.662
114.800428,-9.8,37.742,14.118
114.811142,-11.62,39.818,14.84
114.821856,-15.4,39.993,15.866
114.83257,-18.41,39.336,15.963
114.843284,-20.51,38.74,15.716
114.853998,-21.21,37.239,16.162
114.864712,-20.3,36.392,16.937
114.875426,-19.11,36.023,17.014
114.88614,-16.8,35.982,16.438
114.896812,-14.14,35.99,15.586
114.907484,-11.97,34.932,15.542
114.918156,-9.24,33.063,16.065
114.928828,-7.14,30.549,16.617
114.9395,-5.88,28.359,16.942
114.950172,-5.32,25.735,16.906
114.960844,-4.41,23.578,16.241
114.971516,-2.94,22.252,15.296
114.982188,-1.96,20.97,14.502
114.99286,-0.35,19.677,13.776
115.003532,0.98,18.464,12.994
115.014204,0.63,17.852,12.033
115.024861,-0.49,17.787,11.595
115.035518,-2.38,17.114,10.979
115.046175,-5.18,16.753,10.204
115.056832,-7.91,15.771,9.32
115.067489,-9.45,14.53,9.101
115.078146,-10.57,13.083,8.846
115.088803,-9.73,11.278,8.599
115.09946,-8.47,10.041,7.954
115.110117,-7.42,9.048,7.14
115.120774,-6.79,8.411,6.317
115.131431,-6.3,8.273,5.084
115.142088,-6.16,7.154,4.176
115.152741,-6.37,5.905,3.6
115.163394,-6.02,5.195,3.191
115.174047,-6.23,4.274,3.17
115.1847,-6.51,3.524,3.394
115.195353,-6.09,3.147,3.114
115.206006,-5.32,2.936,3.503
115.216659,-5.46,3.123,3.252
115.227312,-5.18,3.24,2.988
115.237965,-4.69,3.443,3.45
115.248618,-4.13,3.723,3.073
115.259271,-3.92,3.751,2.51
115.269924,-3.78,3.792,1.877
115.280544,-3.22,4.298,0.616
115.291164,-3.57,5.421,-1.319
115.301784,-4.06,6.192,-2.462
115.312404,-3.99,6.508,-3.046
115.323024,-4.06,6.147,-2.612
115.333644,-3.43,5.588,-1.858
115.344264,-2.8,4.724,-1.797
115.354884,-2.17,3.978,-2
115.365504,-2.45,2.644,-2.093
115.376124,-2.38,2.088,-2.973
115.386744,-2.45,1.853,-3.654
115.397364,-2.8,1.99,-3.629
115.407984,-1.89,2.485,-3.613
115.418576,-2.17,2.66,-3.796
115.429168,-1.89,2.55,-3.175
115.43976,-1.47,2.181,-1.89
115.450352,-1.19,1.894,-0.661
115.460944,-1.05,2.222,-0.106
115.471536,-0.28,2.721,-0.515
115.482128,-0.07,3.645,-0.921
115.49272,-0.07,4.967,-1.967
115.503312,-0.42,5.421,-2.527
115.513904,-0.91,5.746,-2.754
115.524496,-1.82,5.239,-2.701
115.535088,-2.8,4.456,-2.697
115.545679,-3.36,4.128,-2.044
115.55627,-3.43,3.941,-1.793
115.566861,-3.29,3.657,-0.99
115.577452,-3.64,3.297,-0.556
115.588043,-3.64,2.717,-0.09
115.598634,-3.57,1.853,-0.029
115.609225,-3.36,1.05,-0.312
115.619816,-2.8,0.527,-0.973
115.630407,-2.66,0.64,-2.019
115.640998,-3.01,0.644,-3.654
115.651589,-3.43,0.612,-5.081
115.66218,-3.92,0.534,-6.658
115.672771,-4.76,0.104,-7.445
115.683399,-5.81,-1.019,-6.719
115.694027,-7.14,-2.126,-5.279
115.704655,-8.19,-2.519,-3.856
115.715283,-8.89,-2.109,-3.357
115.725911,-9.38,-1.035,-3.807
115.736539,-9.24,-0.163,-3.512
115.747167,-8.54,0.604,-1.813
115.757795,-8.82,1.744,-0.617
115.768423,-9.38,3.228,-0.568
115.779051,-10.01,5.73,-1.051
115.789679,-9.1,8.138,-1.408
115.800337,-9.24,10.705,-1.453
115.810995,-9.1,12.655,-2.033
115.821653,-8.75,14.35,-2.374
115.832311,-7.77,15.887,-1.819
115.842969,-6.51,17.197,-1.588
115.853627,-5.04,18.113,-2.35
115.864285,-2.73,18.742,-3.093
115.874943,-0.42,18.669,-2.679
115.885601,0.07,17.193,-1.162
115.896259,1.05,15.425,0.801
115.906917,1.61,14.493,2.058
115.917575,0.98,14.627,2.508
115.928233,0.28,15.794,1.932
115.938911,-0.21,16.63,1.226
115.949589,0.21,18.118,0.849
115.960267,0.21,19.322,1.275
115.970945,-0.63,20.754,0.816
115.981623,-0.21,22.85,0.617
115.992301,-0.07,25.514,0.021
116.002979,-0.35,28.219,-1.208
116.013657,-0.49,31.284,-2.871
116.024335,-0.98,33.388,-3.922
116.035013,-2.24,33.753,-3.573
116.045691,-2.8,33.453,-2.275
116.056369,-3.15,32.61,-0.718
116.067066,-3.85,31.576,0.308
116.077763,-3.08,30.915,0.831
116.08846,-1.33,30.717,-0.057
116.099157,0.56,30.303,-1.338
116.109854,1.61,29.046,-1.062
116.120551,2.59,27.258,0.613
116.131248,4.13,25.251,2.32
116.141945,4.62,22.757,3.16
116.152642,4.9,21.009,4.202
116.163339,4.76,20.004,4.665
116.174036,4.2,19.862,3.858
116.184733,3.64,19.817,3.708
116.19543,2.59,18.646,4.709
116.206116,0.84,17.336,6.895
116.216802,0,14.774,10.139
116.227488,0.56,12.365,12.913
116.238174,0.49,10.387,14.057
116.24886,0.21,9.004,14.24
116.259546,-0.63,6.932,13.093
116.270232,0.28,5.176,12.57
116.280918,0,4.15,12.744
116.291604,-1.89,3.428,9.987
116.30229,-2.66,2.884,6.621
116.312976,-2.24,1.805,5.081
116.323662,-1.19,0.572,5.219
116.334348,1.89,-0.855,4.043
116.345024,4.76,-2.87,4.185
116.3557,5.11,-5.636,5.759
116.366376,4.76,-8.892,5.682
116.377052,6.02,-12.127,7.102
116.387728,7.7,-15.335,9.166
116.398404,7.14,-18.538,9.597
116.40908,7.35,-21.657,8.336
116.419756,7.07,-24.276,6.666
116.430432,6.09,-26.122,4.634
116.441108,4.27,-26.511,2.007
116.451784,1.82,-27.051,-0.576
116.46246,-0.56,-27.57,-1.663
116.473168,-3.57,-27.307,-2.754
116.483876,-7.21,-26.95,-3.97
116.494584,-8.82,-26.2,-5.402
116.505292,-9.66,-26.168,-6.391
116.516,-8.61,-26.07,-5.734
116.526708,-8.05,-25.815,-4.765
116.537416,-6.93,-25.47,-4.704
116.548124,-6.79,-25.109,-3.93
116.558832,-8.33,-25.328,-3.897
116.56954,-10.01,-25.567,-4.153
116.580248,-10.15,-25.125,-3.435
116.590956,-10.01,-23.905,-3.504
116.601677,-9.24,-22.21,-3.845
116.612398,-8.05,-20.478,-4.393
116.623119,-7.77,-19.339,-4.405
116.63384,-8.33,-18.812,-4.17
116.644561,-8.89,-18.26,-4.073
116.655282,-9.17,-18.528,-3.765
116.666003,-9.1,-19.371,-3.416
116.676724,-8.61,-20.202,-3.136
116.687445,-7.77,-20.977,-2.775
116.698166,-6.93,-21.439,-2.572
116.708887,-5.11,-21.48,-1.939
116.719608,-4.83,-21.042,-2.004
116.730329,-5.18,-20.693,-2.369
116.741054,-5.67,-21.119,-2.373
116.751779,-7.35,-22.497,-1.408
116.762504,-9.03,-23.503,-0.946
116.773229,-10.85,-25.352,-1.343
116.783954,-12.18,-28.235,-1.922
116.794679,-14,-31.236,-1.03
116.805404,-15.33,-33.803,-0.985
116.816129,-16.38,-36.852,-2.233
116.826854,-16.94,-41.426,-2.898
116.837579,-18.55,-48.202,-1.96
116.848304,-21.28,-55.923,-0.905
116.859029,-24.22,-63.935,-0.612
116.869746,-29.05,-72.114,-2.196
116.880463,-34.02,-83.136,-6.201
116.89118,-39.62,-97.163,-8.887
116.901897,-45.85,-113.237,-9.234
116.912614,-50.75,-128.456,-12.415
116.923331,-53.48,-141.035,-18.471
116.934048,-55.02,-150.318,-23.875
116.944765,-56.07,-157.678,-28.087
116.955482,-55.58,-163.112,-31.533
116.966199,-52.64,-166.815,-34.318
116.976916,-48.51,-168.721,-36.005
116.987633,-45.15,-168.344,-35.725
116.99835,-42.91,-167.257,-35.036
117.009063,-41.02,-165.351,-33.35
117.019776,-37.38,-161.048,-30.743
117.030489,-33.74,-155.586,-29.069
117.041202,-28.84,-149.041,-28.697
117.051915,-24.08,-142.176,-29.334
117.062628,-18.9,-134.098,-27.981
117.073341,-15.19,-125.429,-25.955
117.084054,-14.63,-117.846,-24.618
117.094767,-14.63,-109.581,-23.516
117.10548,-13.02,-100.814,-22.041
117.116193,-9.03,-91.808,-21.519
117.126906,-6.02,-84.622,-18.333
117.137619,-8.54,-76.819,-12.195
117.148332,-11.06,-70.684,-12.321
117.159045,-9.8,-64.091,-12.225
117.169748,-7.84,-56.629,-8.99
117.180451,-8.05,-50.206,-6.72
117.191154,-6.93,-43.925,-6.466
117.201857,-5.88,-38.438,-4.93
117.21256,-4.97,-34.192,-1.196
117.223263,-5.6,-31.029,1.424
117.233966,-6.51,-27.545,3.033
117.244669,-7.98,-23.786,4.691
117.255372,-8.19,-19.447,5.882
117.266075,-8.47,-15.582,6.137
117.276805,-8.54,-11.56,5.496
117.287535,-8.96,-8.032,4.839
117.298265,-10.57,-5.052,4.867
117.308995,-10.43,-2.436,4.546
117.319725,-7.91,-1.102,5.847
117.330455,-7.7,0.269,8.15
117.341185,-7.77,0.776,8.098
117.351915,-6.44,1.21,8.459
117.362645,-5.25,2.073,8.398
117.373375,-3.78,2.686,8.15
117.384105,-2.31,3.042,8.142
117.394835,-2.31,2.767,8.093
117.405546,-2.31,1.874,7.51
117.416257,-1.75,1.193,6.536
117.426968,-1.54,1.148,5.178
