Time,GyroscopeX,GyroscopeY,GyroscopeZ
108.009771,31.57,-26.508,-3.252
108.020483,31.85,-29.273,-1.679
108.031195,30.94,-32.594,1.432
108.041907,28.98,-37.82,7.689
108.052619,25.97,-42.851,16.469
108.063331,17.22,-46.321,19.625
108.074043,10.29,-47.651,22.731
108.084739,12.11,-47.919,24.247
108.095435,10.43,-45.523,17.917
108.106131,8.4,-40.759,11.862
108.116827,10.22,-35.667,7.572
108.127523,13.09,-31.146,2.896
108.138219,14.07,-26.26,-2.64
108.148915,14.28,-21.245,-7.3
108.159611,13.58,-16.667,-9.478
108.170307,12.32,-13.671,-8.737
108.181003,9.52,-12.024,-6.385
108.191699,6.44,-11.788,-3.287
108.202395,3.71,-12.793,0.801
108.213091,2.1,-14.305,3.733
108.223764,2.1,-15.692,5.549
108.234437,4.34,-16.093,6.616
108.24511,7.21,-16.296,7.362
108.255783,10.57,-16.458,7.476
108.266456,12.95,-16.414,7.626
108.277129,14.7,-15.177,7.062
108.287802,15.12,-13.316,6.182
108.298475,14.21,-11.438,4.807
108.309148,12.25,-10.348,5.07
108.319821,9.31,-9.674,5.686
108.330494,6.58,-9.358,5.102
108.341167,4.13,-9.431,4.308
108.35184,3.71,-9.245,4.056
108.362502,5.04,-9.35,3.043
108.373164,8.33,-8.758,2.507
108.383826,11.9,-8.661,3.164
108.394488,15.05,-8.43,4.271
108.40515,18.62,-8.892,5.682
108.415812,21.07,-8.782,7.479
108.426474,22.54,-8.506,8.736
108.437136,22.19,-8.47,8.529
108.447798,20.09,-7.468,7.284
108.45846,17.01,-6.183,5.236
108.469122,11.27,-3.99,2.069
108.479784,4.34,-3.07,-1.536
108.490432,-1.12,-2.794,-3.905
108.50108,-4.76,-2.555,-3.649
108.511728,-7.07,-2.016,-3.483
108.522376,-8.4,-1.132,-3.256
108.533024,-9.17,-0.021,-3.913
108.543672,-9.66,1.905,-4.355
108.55432,-9.87,4.614,-6.01
108.564968,-8.47,7.168,-7.195
108.575616,-10.08,10.582,-11.639
108.586264,-19.53,14.125,-20.042
108.596912,-23.8,15.333,-20.042
108.60756,-17.78,13.461,-10.634
108.618208,-11.76,13.385,-4.961
108.628856,-13.02,11.856,-6.368
108.639496,-13.72,8.981,-2.965
108.650136,-10.08,5.755,3.645
108.660776,-7.42,3.204,5.612
108.671416,-5.32,1.331,5.352
108.682056,-0.07,1.185,4.971
108.692696,6.79,2.182,2.944
108.703336,13.09,3.264,-0.775
108.713976,18.55,5.076,-6.213
108.724616,21.56,6.555,-10.572
108.735256,20.37,7.545,-12.957
108.745896,17.08,7.743,-13.277
108.756572,13.16,7.484,-12.612
108.767248,9.24,7.155,-11.959
108.777924,5.25,6.835,-10.949
108.7886,1.75,6.454,-9.595
108.799276,-0.63,6.73,-8.338
108.809952,-3.5,7.48,-7.353
108.820628,-5.67,8.551,-6.169
108.831304,-7.84,9.95,-5.638
108.84198,-9.87,11.629,-5.484
108.852656,-11.55,13.559,-5.144
108.863332,-13.3,14.042,-5.059
108.874008,-13.58,14.646,-4.454
108.884693,-12.88,14.942,-4.118
108.895378,-12.46,15.035,-4.244
108.906063,-12.74,15.007,-4.888
108.916748,-14.14,15.497,-5.655
108.927433,-14.63,15.81,-5.813
108.938118,-14.56,15.935,-5.72
108.948803,-14.56,16.592,-4.609
108.959488,-16.45,17.61,-5.14
108.970173,-19.6,18.311,-7.504
108.980858,-23.03,18.469,-9.609
108.991543,-26.6,17.24,-11.105
109.002228,-28.91,14.978,-11.575
109.012913,-29.26,13.011,-11.709
109.023598,-29.4,11.222,-12.45
109.034283,-28.84,9.191,-13.022
109.045013,-27.86,7.581,-11.955
109.055743,-25.34,6.15,-10.288
109.066473,-23.17,4.618,-7.644
109.077203,-22.05,2.53,-4.672
109.087933,-26.95,1.926,-4.067
109.098663,-33.81,1.638,-2.839
109.109393,-33.11,-0.166,1.748
109.120123,-27.51,-0.486,2.757
109.130853,-26.95,1.095,-1.371
109.141583,-21.7,2.416,-2.417
109.152304,-10.22,1.889,-1.444
109.163025,0.14,2.404,-1.14
109.173746,5.81,3.337,-3.605
109.184467,8.12,3.406,-4.802
109.195188,11.62,3.779,-4.096
109.205909,15.96,2.976,-3.171
109.21663,19.95,1.318,-1.829
109.227351,22.19,-0.681,0.235
109.238072,25.27,-2.554,2.393
109.248793,29.19,-4.934,4.603
109.259514,33.53,-6.743,5.99
109.270235,37.38,-8.186,6.518
109.280956,39.9,-8.851,6.258
109.291687,40.67,-9.022,6.015
109.302418,40.53,-8.993,6.66
109.313149,40.04,-8.255,6.505
109.32388,38.71,-7.481,6.144
109.334611,36.4,-6.382,5.556
109.345342,32.06,-5.315,4.749
109.356073,27.37,-4.014,3.415
109.366804,23.38,-2.842,2.413
109.377535,21.49,-2.055,3.192
109.388266,22.05,-1.042,3.086
109.398997,21.14,0.609,2.595
109.409728,18.62,2.835,0.855
109.420446,15.4,5.588,-1.858
109.431164,11.83,8.527,-3.614
109.441882,7.91,11.341,-4.255
109.4526,4.83,12.927,-5.184
109.463318,2.24,14.954,-6.604
109.474036,-0.63,17.5,-8.145
109.484754,-3.92,19.738,-9.954
109.495472,-6.44,23.266,-11.819
109.50619,-10.36,26.307,-13.345
109.516908,-14.63,29.721,-14.164
109.527626,-20.3,31.749,-14.375
109.538344,-26.53,34.04,-14.469
109.549062,-34.58,36.87,-15.605
109.559788,-43.12,39.161,-16.907
109.570514,-49.56,40.965,-17.868
109.58124,-53.62,43.828,-19.993
109.591966,-55.44,46.11,-22.86
109.602692,-54.88,48.275,-24.256
109.613418,-54.39,49.743,-24.921
109.624144,-52.71,50.136,-26.344
109.63487,-48.79,49.775,-27.119
109.645596,-42.84,48.279,-25.89
109.656322,-36.26,45.182,-22.029
109.667048,-31.22,41.148,-17.694
109.677774,-26.88,37.514,-16.842
109.688517,-24.36,34.619,-18.56
109.69926,-24.64,31.48,-20.109
109.710003,-24.78,28.808,-19.869
109.720746,-24.01,27.194,-20.794
109.731489,-23.24,25.933,-22.509
109.742232,-21.21,24.947,-22.967
109.752975,-17.43,24.611,-22.671
109.763718,-12.88,24.42,-23.202
109.774461,-8.75,23.447,-23.729
109.785204,-6.23,22.291,-23.222
109.795947,-4.69,20.426,-21.916
109.80669,-3.78,18.869,-19.134
109.81743,-3.64,17.742,-16.774
109.82817,-3.64,17.386,-15.557
109.83891,-4.41,17.771,-16.129
109.84965,-5.18,19.178,-17.658
109.86039,-6.16,20.799,-20.002
109.87113,-7,21.991,-21.924
109.88187,-6.02,22.348,-21.933
109.89261,-5.46,21.002,-20.748
109.90335,-4.9,19.705,-18.631
109.91409,-5.32,19.101,-16.819
109.92483,-7.91,18.428,-16.227
109.93557,-10.5,17.576,-15.026
109.94631,-11.48,15.44,-11.778
109.957045,-10.22,12.63,-9.146
109.96778,-8.75,9.285,-7.106
109.978515,-6.65,5.664,-5.114
109.98925,-3.15,2.112,-3.11
109.999985,0.07,-0.588,-2.307
110.01072,1.54,-3.796,-0.243
110.021455,0.63,-6.84,2.916
110.03219,-1.61,-8.352,5.848
110.042925,-4.76,-8.936,6.741
110.05366,-9.1,-9.139,5.07
110.064395,-12.46,-9.245,2.848
110.07513,-14.98,-8.929,1.056
110.085882,-16.38,-9.018,-0.453
110.096634,-17.01,-8.917,-1.43
110.107386,-19.67,-8.633,-2.233
110.118138,-23.45,-8.524,-4.062
110.12889,-28.07,-7.892,-5.23
110.139642,-33.74,-7.794,-5.781
110.150394,-37.17,-7.709,-6.264
110.161146,-38.08,-7.344,-5.915
110.171898,-37.38,-7.308,-4.914
110.18265,-35.77,-7.583,-3.754
110.193402,-33.81,-8.532,-2.002
110.204154,-32.13,-9.44,-0.883
110.214915,-32.41,-10.539,-0.295
110.225676,-32.62,-11.788,0.338
110.236437,-29.26,-13.316,1.348
110.247198,-24.92,-14.492,1.567
110.257959,-20.72,-16.09,2.565
110.26872,-20.58,-17.724,3.77
110.279481,-22.26,-19.183,6
110.290242,-18.97,-21.835,8.944
110.301003,-16.1,-20.902,8.896
110.311764,-21,-17.245,3.072
110.322525,-23.24,-13.227,0.44
110.333286,-21.49,-9.728,-0.862
110.344024,-17.43,-7.239,-3.693
110.354762,-10.85,-4.903,-6.053
110.3655,-3.64,-3.205,-8.028
110.376238,2.03,-2.138,-7.627
110.386976,4.48,-3.792,-4.294
110.397714,5.39,-7.137,1.372
110.408452,5.04,-10.092,7.248
110.41919,3.92,-12.581,11.287
110.429928,2.1,-14.178,13.493
110.440666,0.35,-14.564,14.065
110.451404,-0.49,-14.235,12.203
110.462142,0,-12.735,9.34
110.47288,0.98,-10.854,6.331
110.483577,3.08,-9.513,3.156
110.494274,4.9,-8.219,0.257
110.504971,6.44,-7.376,-1.301
110.515668,6.79,-7.684,-1.568
110.526365,6.65,-8.252,0.038
110.537062,7.14,-8.637,1.818
110.547759,6.65,-9.723,3.545
110.558456,5.95,-10.027,5.269
110.569153,4.06,-9.743,6.883
110.57985,1.68,-9.029,8.075
110.590547,-1.82,-8.676,8.492
110.601244,-4.13,-8.186,8.934
110.611944,-5.46,-7.513,9.551
110.622644,-5.74,-6.547,9.721
110.633344,-4.27,-5.854,9.417
110.644044,-1.61,-5.501,8.626
110.654744,1.4,-5.992,8.184
110.665444,3.01,-7.687,8.525
110.676144,3.78,-9.426,9.924
110.686844,2.45,-10.947,11.291
110.697544,1.26,-11.928,12.824
110.708244,-0.21,-12.106,14.64
110.718944,-1.47,-12.146,16.481
110.729644,-1.33,-10.748,15.804
110.740344,0,-9.223,11.595
110.75102,3.22,-8.008,7.118
110.761696,6.51,-6.933,4.251
110.772372,9.03,-6.403,1.643
110.783048,10.01,-6.601,0.755
110.793724,7.77,-7.092,0.313
110.8044,2.1,-6.63,0.11
110.815076,-5.04,-5.357,-0.66
110.825752,-9.8,-4.023,-1.776
110.836428,-11.13,-1.615,-4.549
110.847104,-14.63,1.394,-8.71
110.85778,-17.71,3.36,-8.577
110.868456,-13.37,2.708,-5.28
110.879123,-7.35,3.239,-5.471
110.88979,-10.29,5.197,-12.944
110.900457,-10.29,6.45,-10.378
110.911124,-3.5,4.135,-5.313
110.921791,3.22,0.997,-3.236
110.932458,6.86,-0.276,-3.674
110.943125,8.96,-0.642,-6.439
110.953792,9.73,0.068,-9.655
110.964459,9.31,0.627,-11.618
110.975126,6.86,0.683,-13.953
110.985793,4.06,0.156,-14.188
110.99646,0.07,-0.533,-13.102
111.007092,-0.35,-1.445,-11.557
111.017724,-0.07,-1.993,-10.871
111.028356,0.98,-1.21,-10.875
111.038988,1.12,0.181,-11.91
111.04962,0.49,1.705,-13.702
111.060252,-1.26,2.573,-12.98
111.070884,-3.85,3.461,-11.971
111.081516,-6.37,4.386,-11.168
111.092148,-9.94,4.617,-11.269
111.10278,-12.95,5.647,-11.87
111.113412,-15.4,5.675,-11.225
111.124044,-14.7,4.978,-9.287
111.134676,-13.51,4.472,-8.025
111.145312,-10.78,4.24,-7.924
111.155948,-7.21,5.12,-8.48
111.166584,-4.06,5.424,-8.995
111.17722,-1.47,5.558,-8.545
111.187856,-0.07,5.36,-8.224
111.198492,0.49,4.508,-7.024
111.209128,0.14,3.142,-4.919
111.219764,-0.77,1.788,-2.883
111.2304,-1.05,0.628,-1.951
111.241036,-1.89,-0.215,-1.602
111.251672,-2.38,-1.054,-0.47
111.262308,-2.31,-2.044,0.706
111.272918,-4.06,-2.392,1.071
111.283528,-6.79,-1.699,0.767
111.294138,-11.83,-0.912,0.337
111.304748,-16.59,-0.414,-0.073
111.315358,-19.95,-0.101,-0.231
111.325968,-22.54,-0.515,-0.304
111.336578,-22.33,-1.756,0.686
111.347188,-21.91,-4.002,2.138
111.357798,-24.99,-6.321,2.795
111.368408,-31.78,-8.126,3.756
111.379018,-37.52,-9.597,6.055
111.389628,-40.95,-10.679,9.774
111.400238,-41.37,-10.537,12.998
111.410847,-37.1,-8.789,13.164
111.421456,-29.33,-6.243,10.414
111.432065,-20.44,-3.316,6.31
111.442674,-13.51,-0.511,1.687
111.453283,-7.56,1.123,0.482
111.463892,-2.59,1.152,2.336
111.474501,0.28,-0.076,4.465
111.48511,1.47,-1.779,5.657
111.495719,2.52,-3.584,7.827
111.506328,3.36,-5.899,9.266
111.516937,5.18,-8.267,8.991
111.527546,6.79,-9.723,8.379
111.538153,9.45,-9.857,6.72
111.54876,11.76,-9.727,3.971
111.559367,13.79,-8.69,1.311
111.569974,13.23,-7.417,-1.876
111.580581,10.57,-5.888,-4.095
111.591188,7.35,-5.033,-4.513
111.601795,4.55,-5.057,-4.375
111.612402,2.17,-4.838,-4.407
111.623009,0.07,-4.611,-4.083
111.633616,-2.03,-4.773,-3.969
111.644223,-3.78,-4.972,-3.649
111.65483,-5.46,-5.118,-2.822
111.665437,-7.14,-5.588,-0.559
111.676055,-8.54,-5.389,1.538
111.686673,-10.08,-5.202,2.495
111.697291,-10.78,-4.294,2.584
111.707909,-11.27,-3.013,2.17
111.718527,-10.92,-0.774,1.569
111.729145,-10.22,1.472,0.117
111.739763,-7.77,3.945,-2.219
111.750381,-5.6,7.209,-4.202
111.760999,-5.81,9.695,-5.399
111.771617,-7,11.227,-5.626
111.782235,-7.84,11.568,-5.139
111.792853,-8.19,10.948,-2.832
111.803513,-6.44,9.383,0.802
111.814173,-4.41,7.758,4.78
111.824833,-2.1,6.68,6.864
111.835493,-0.28,5.998,8.308
111.846153,0.21,4.819,10.161
111.856813,-0.49,2.556,13.316
111.867473,-1.33,0.039,16.711
111.878133,-3.78,-2.114,20.454
111.888793,-6.16,-3.123,22.55
111.899453,-7.35,-3.29,21.881
111.910113,-8.82,-2.572,20.231
111.920773,-11.76,-0.115,15.973
111.931462,-15.54,3.132,9.65
111.942151,-18.9,6.898,1.998
111.95284,-23.94,10.684,-4.158
111.963529,-30.17,13.668,-6.972
111.974218,-34.3,14.881,-6.19
111.984907,-37.17,14.61,-3.039
111.995596,-33.81,13.532,0.254
112.006285,-29.05,13.653,-1.644
112.016974,-21.63,12.299,-2.025
112.027663,-9.8,9.351,0.583
112.038352,0.49,6.35,1.475
112.049041,9.24,4.526,0.94
112.05973,16.24,3.118,-3.573
112.070447,20.37,3.113,-9.189
112.081164,21.84,3.708,-13.775
112.091881,19.67,4.616,-17.311
112.102598,15.4,5.796,-19.165
112.113315,11.2,7.503,-19.574
112.124032,7.21,8.562,-18.322
112.134749,4.9,8.278,-16.31
112.145466,4.13,8.096,-14.068
112.156183,4.27,7.845,-11.838
112.1669,3.99,7.46,-10.057
112.177617,3.71,7.545,-8.123
112.188334,2.94,7.902,-6.923
112.199051,1.4,8.778,-5.844
112.209768,0.49,9.151,-5.139
112.220485,-0.91,9.881,-4.442
112.231202,-3.43,9.314,-4.044
112.241919,-5.53,8.519,-2.763
112.252636,-6.86,6.946,-0.694
112.263353,-7.98,5.101,0.899
112.27407,-9.1,3.763,1.232
112.284787,-10.36,2.749,1.338
112.295504,-11.27,2.08,0.296
112.306221,-11.69,0.937,-0.475
112.316938,-10.64,-0.385,-0.637
112.327655,-9.59,-2.117,1.119
112.338382,-8.12,-4.934,3.395
112.349109,-6.09,-7.392,5.236
112.359836,-6.09,-9.074,6.716
112.370563,-6.72,-9.569,7.909
112.38129,-8.19,-9.216,7.118
112.392017,-11.13,-8.568,4.247
112.402744,-14.14,-7.542,0.447
112.413471,-17.43,-6.679,-4.447
112.424198,-20.79,-6.051,-7.606
112.434925,-22.89,-6.108,-8.896
112.445652,-21.49,-6.019,-8.596
112.456379,-20.65,-7.276,-7.111
112.467106,-16.66,-9.076,-4.159
112.477872,-12.95,-11.78,-0.513
112.488638,-13.86,-14.229,1.685
112.499404,-17.08,-15.555,3.157
112.51017,-20.3,-15.056,3.956
112.520936,-20.72,-13.904,5.083
112.531702,-16.66,-12.614,5.026
112.542468,-10.92,-9.971,1.725
112.553234,-6.44,-6.922,-3.069
112.564,1.82,-4.214,-3.515
112.574766,11.41,-3.431,-2.311
112.585532,17.71,-4.392,-1.698
112.596298,19.39,-6.196,0.471
112.607093,17.29,-9.439,6.368
112.617888,12.53,-13.984,13.598
112.628683,7.07,-17.949,19.154
112.639478,2.45,-21.31,21.689
112.650273,-0.42,-22.681,20.594
112.661068,-2.24,-22.568,17.131
112.671863,-2.31,-21.218,13.105
112.682658,-1.54,-19.033,8.372
112.693453,-0.84,-16.499,3.275
112.704248,1.47,-14.221,-0.375
112.715043,4.27,-11.999,-2.898
112.725838,5.95,-10.499,-4.552
112.736626,5.67,-10.098,-5.619
112.747414,4.27,-9.777,-5.42
112.758202,2.8,-10.832,-4.682
112.76899,0.56,-12.121,-2.208
112.779778,-1.68,-13.357,-0.436
112.790566,-5.11,-14.61,0.622
112.801354,-8.4,-14.934,2.058
112.812142,-9.66,-14.849,2.784
112.82293,-10.22,-13.268,2.281
112.833718,-11.13,-11.017,1.611
112.844506,-11.48,-8.824,0.861
112.855294,-11.41,-6.784,0.581
112.866082,-11.27,-4.894,0.345
112.876866,-10.92,-3.155,0.155
112.88765,-11.62,-1.983,0.361
112.898434,-12.67,-1.654,0.917
112.909218,-12.18,-1.812,0.604
112.920002,-10.78,-1.577,0.077
112.930786,-9.45,-1.188,0.288
112.94157,-7.84,-0.588,0.11
112.952354,-5.46,-0.961,1.821
112.963138,-0.91,-1.637,5.255
112.973922,2.87,-2.326,8.759
112.984706,4.9,-2.415,10.876
112.99549,2.17,-1.795,12.194
113.006236,-5.74,-0.594,11.837
113.016982,-14.84,2.02,7.891
113.027728,-24.5,4.344,5.599
113.038474,-31.01,4.656,7.858
113.04922,-27.23,2.463,11.025
113.059966,-17.36,1.717,10.823
113.070712,-14.14,2.499,5.985
113.081458,-7.07,2.811,4.618
113.092204,5.46,1.809,5.863
113.10295,14.42,0.354,6.46
113.113696,18.06,-0.523,2.964
113.124442,19.46,-0.215,-1.602
113.135188,18.76,1.293,-5.316
113.145934,15.96,3.551,-8.046
113.15668,12.53,5.789,-12.271
113.167426,8.96,8.424,-14.721
113.178172,5.95,9.62,-15.86
113.188918,4.9,10.436,-14.437
113.199664,5.53,10.918,-11.935
113.21041,7.56,11.442,-8.858
113.221156,9.45,11.004,-6.376
113.231902,11.2,10.453,-4.056
113.242648,12.88,10.77,-2.224
113.253394,14.7,11.763,-1.409
113.26414,15.05,12.724,-2.021
113.274895,14.07,14.095,-3.343
113.28565,12.11,14.889,-4.625
113.296405,9.73,15.607,-5.067
113.30716,6.65,15.57,-4.86
113.317915,3.15,14.228,-4.102
113.32867,-0.98,13.628,-3.923
113.339425,-4.83,13.19,-5.067
113.35018,-7.77,12.87,-6.474
113.360935,-8.82,12.695,-7.499
113.37169,-7.98,11.787,-7.589
113.382445,-6.93,10.656,-7.219
113.3932,-5.04,9.017,-6.797
113.403942,-4.69,6.808,-5.552
113.414684,-5.88,4.569,-3.743
113.425426,-8.19,2.899,-2.332
113.436168,-10.78,2.027,-1.42
113.44691,-12.74,2.741,-2.644
113.457652,-15.89,5.871,-7.494
113.468394,-16.52,7.29,-9.092
113.479136,-15.47,9.171,-9.685
113.489878,-12.81,10.611,-9.786
113.50062,-8.82,10.534,-8.947
113.511362,-7.84,10.959,-8.943
113.522104,-12.04,11.539,-10.618
113.532846,-17.92,11.965,-11.822
113.543651,-23.52,10.967,-9.794
113.554456,-27.65,8.495,-3.833
113.565261,-25.76,6.509,1.787
113.576066,-17.85,5.686,4.841
113.586871,-7.63,6.659,5.368
113.597676,1.68,9.38,3.644
113.608481,10.71,13.187,-1.016
113.619286,17.15,16.26,-5.947
113.630091,19.04,18.344,-8.494
113.640896,16.94,17.277,-7.687
113.651701,12.81,14.228,-4.102
113.662529,8.05,9.752,0.724
113.673357,2.73,4.818,5.328
113.684185,-1.47,0.188,9.416
113.695013,-3.5,-2.752,11.172
113.705841,-4.34,-3.92,10.539
113.716669,-4.27,-4.22,8.212
113.727497,-3.36,-3.665,5.467
113.738325,-0.56,-3.077,4.149
113.749153,0.84,-3.317,2.685
113.759981,1.12,-3.394,2.316
113.770809,0.7,-3.803,1.817
113.781637,-0.14,-4.282,2.515
113.792465,-1.82,-4.675,2.73
113.80328,-5.11,-5.324,3.184
113.814095,-9.03,-5.474,3.229
113.82491,-12.11,-5.153,3.427
113.835725,-13.16,-4.359,3.354
113.84654,-14.42,-2.737,2.218
113.857355,-17.22,-1.079,0.876
113.86817,-18.83,0.523,-0.547
113.878985,-18.83,2.794,-2.137
113.8898,-17.43,5.259,-3.622
113.900615,-15.47,8.272,-4.583
113.91143,-14.84,10.019,-4.417
113.922245,-15.82,11.783,-3.538
113.93306,-17.15,13.109,-2.593
113.943881,-19.25,14.415,-1.936
113.954702,-20.86,16.171,-1.413
113.965523,-21.28,18.203,-0.842
113.976344,-19.74,19.792,0.22
113.987165,-18.9,20.295,1.802
113.997986,-19.39,19.623,3.602
114.008807,-18.34,18.836,5.24
114.019628,-16.73,17.231,7.09
114.030449,-16.73,15.065,8.485
114.04127,-17.43,13.748,9.106
114.052091,-19.88,12.717,7.289
114.062912,-23.45,11.922,3.737
114.073717,-27.86,12.753,-1.376
114.084522,-32.2,13.957,-4.576
114.095327,-35.56,14.808,-6.985
114.106132,-34.58,14.042,-6.267
114.116937,-23.31,13.397,-3.822
114.127742,-11.06,12.05,-8.679
114.138547,-0.28,10.659,-11.27
114.149352,10.43,7.724,-7.523
114.160157,19.11,2.493,-4.465
114.170962,22.61,-0.998,-5.223
114.181767,21.7,-3.484,-6.443
114.192572,17.22,-5.491,-5.944
114.203377,13.79,-6.294,-5.019
114.214182,10.43,-7.065,-5.084
114.224967,8.82,-7.523,-5.307
114.235752,7.98,-7.129,-5.522
114.246537,7.63,-6.46,-5.688
114.257322,7.35,-6.744,-6.094
114.268107,7.49,-6.55,-5.988
114.278892,8.4,-6.914,-5.129
114.289677,9.59,-7.308,-3.705
114.300462,11.41,-7.397,-2.797
114.311247,12.18,-8.066,-3.839
114.322032,10.99,-8.009,-4.966
114.332817,8.96,-8.269,-5.51
114.34361,7.35,-8.711,-5.019
114.354403,6.09,-9.781,-3.786
114.365196,3.71,-11.026,-2.371
114.375989,0.49,-11.687,-0.639
114.386782,-3.99,-12.295,0.391
114.397575,-8.19,-12.453,1.287
114.408368,-13.09,-12.834,1.433
114.419161,-17.29,-12.505,0.78
114.429954,-21.07,-11.727,-0.006
114.440747,-22.96,-10.669,-1.17
114.45154,-25.13,-9.315,-3.206
114.462333,-27.3,-8.172,-6.061
114.473095,-28.91,-6.814,-8.523
114.483857,-30.59,-5.439,-10.271
114.494619,-31.43,-3.975,-10.51
114.505381,-30.94,-2.467,-10.599
114.516143,-30.38,-1.486,-10.924
114.526905,-30.03,-1.226,-10.381
114.537667,-30.24,-0.755,-9.018
114.548429,-29.12,-0.366,-7.599
114.559191,-26.39,-0.305,-5.527
114.569953,-21.77,-0.126,-3.718
114.580715,-20.02,-1.026,-2.242
114.591477,-22.82,-3.496,-1.54
114.602239,-24.5,-6.565,1.757
114.612987,-26.18,-9.411,4.596
114.623735,-26.04,-11.406,7.442
114.634483,-19.39,-12.626,11.137
114.645231,-6.37,-13.372,10.934
114.655979,-0.77,-11.739,3.688
114.666727,4.34,-9.14,-2.18
114.677475,13.79,-7.182,-3.612
114.688223,23.52,-5.897,-5.66
114.698971,28.7,-4.044,-9.314
114.709719,28.7,-2.325,-11.001
114.720467,24.92,-2.621,-8.921
114.731215,19.95,-4.153,-3.86
114.741924,14.35,-7.043,2.454
114.752633,11.13,-9.629,8.253
114.763342,9.52,-11.985,11.534
114.774051,7.7,-13.051,12.341
114.78476,6.16,-13.4,11.498
114.795469,4.55,-13.352,10.014
114.806178,2.24,-12.837,9.109
114.816887,0.21,-12.253,8.217
114.827596,-1.89,-11.86,6.794
114.838305,-3.71,-10.988,5.881
114.849014,-5.81,-9.902,5.362
114.859723,-7.42,-8.778,4.636
114.870432,-9.73,-7.586,3.922
114.881114,-12.88,-6.204,2.531
114.891796,-15.54,-5.146,1.367
114.902478,-17.99,-3.787,1.322
114.91316,-19.88,-2.753,1.505
114.923842,-22.05,-1.772,1.18
114.934524,-25.83,-0.71,-0.409
114.945206,-27.72,0.624,-1.525
114.955888,-27.02,1.873,-2.158
114.96657,-24.36,3.268,-2.409
114.977252,-20.79,4.699,-2.868
114.987934,-17.36,5.806,-3.099
114.998616,-14.42,7.218,-2.637
115.009298,-12.39,8.122,-0.914
115.019968,-11.48,9.006,1.73
115.030638,-12.46,9.643,3.762
115.041308,-13.79,10.199,7.058
115.051978,-15.47,10.796,10.931
115.062648,-14.42,11.615,13.137
115.073318,-14.77,11.506,14.965
115.083988,-16.94,10.331,17.601
115.094658,-17.99,7.639,22.387
115.105328,-16.66,3.621,27.436
115.115998,-12.39,0.588,31.734
115.126668,-11.97,0.6,29.249
115.137294,-13.79,2.915,21.767
115.14792,-12.74,6.065,17.204
115.158546,-12.04,7.56,13.559
115.169172,-16.17,6.307,12.201
115.179798,-11.55,1.779,17.728
115.190424,2.52,0.121,21.487
115.20105,10.15,1.616,11.8
115.211676,18.76,2.024,5.048
115.222302,29.82,0.183,2.591
115.232928,33.95,-4.61,0.751
115.243554,28.7,-8.273,-2.667
115.25418,21.91,-9.689,-8.745
115.264806,15.19,-9.487,-14.325
115.275395,9.73,-8.056,-19.617
115.285984,5.32,-7.379,-23.052
115.296573,3.99,-6.471,-25.379
115.307162,2.8,-5.072,-26.057
115.317751,2.03,-3.742,-25.538
115.32834,1.33,-3.126,-23.794
115.338929,0.56,-2.298,-22.44
115.349518,-1.89,-1.394,-20.717
115.360107,-4.97,-0.587,-19.65
115.370696,-9.31,0.293,-18.998
115.381285,-12.6,1.161,-18.276
115.391874,-15.96,1.924,-17.36
115.402445,-18.97,2.232,-15.884
115.413016,-21.77,1.969,-13.584
115.423587,-23.8,1.787,-11.342
115.434158,-24.36,1.102,-8.264
115.444729,-24.57,-0.163,-5.928
115.4553,-24.15,-0.909,-3.714
115.465871,-22.54,-1.29,-2.36
115.476442,-20.37,-2.149,-1.516
115.487013,-18.55,-3.398,-0.884
115.497584,-16.66,-4.367,-0.628
115.508155,-14.07,-4.947,-1.37
115.518726,-10.22,-5.442,-2.594
115.529309,-6.37,-5.564,-3.113
115.539892,-2.66,-6.249,-2.452
115.550475,-0.56,-7.607,-2.408
115.561058,-0.21,-8.727,-3.316
115.571641,-1.47,-9.623,-4.682
115.582224,-4.06,-10.037,-4.755
115.592807,-6.3,-9.538,-5.165
115.60339,-9.17,-8.764,-5.526
115.613973,-12.6,-7.057,-5.936
115.624556,-15.26,-4.847,-5.972
115.635139,-16.38,-3.01,-5.506
115.645722,-15.33,-1.387,-4.225
115.656304,-10.64,-0.884,-2.644
115.666886,-6.37,-1.302,0.126
115.677468,-1.61,-2.505,4.534
115.68805,0.14,-4.123,7.66
115.698632,-6.02,-5.437,7.855
115.709214,-12.67,-5.498,6.992
115.719796,-17.71,-5.149,6.627
115.730378,-19.18,-5.396,8.431
115.74096,-14.21,-6.146,9.863
115.751542,-4.13,-7.444,9.563
115.762124,6.58,-7.521,7.985
115.772706,14.28,-6.731,3.504
115.783288,22.68,-6.662,1.1
115.793876,30.52,-6.589,0.686
115.804464,33.32,-7.449,0.321
115.815052,33.88,-9.221,0.293
115.82564,33.39,-11.135,0.667
115.836228,32.55,-13.693,2.277
115.846816,31.22,-15.384,3.4
115.857404,27.44,-16.455,3.425
115.867992,21.21,-16.058,1.576
115.87858,12.88,-14.505,-1.989
115.889168,4.83,-13.123,-5.797
115.899756,-1.96,-12.86,-8.096
115.910344,-6.79,-13.241,-9.158
115.920984,-9.52,-14.226,-8.408
115.931624,-10.99,-15.674,-7.455
115.942264,-10.92,-16.829,-5.74
115.952904,-10.99,-18.041,-4.105
115.963544,-10.01,-18.426,-3.533
115.974184,-10.71,-18.645,-3.501
115.984824,-11.55,-18.305,-3.014
115.995464,-13.23,-17.713,-2.341
116.006104,-15.33,-16.901,-1.701
116.016744,-19.53,-15.231,-1.904
116.027384,-23.45,-13.491,-2.095
116.038024,-25.34,-10.637,-3.368
116.048681,-26.18,-7.462,-4.443
116.059338,-25.2,-4.137,-5.563
116.069995,-21.49,-0.917,-6.488
116.080652,-19.6,1.512,-6.557
116.091309,-19.81,4.346,-6.91
116.101966,-20.37,6.341,-7.34
116.112623,-21.21,7.988,-4.989
116.12328,-24.15,9.071,-1.457
116.133937,-27.86,9.193,2.687
116.144594,-31.36,8.508,6.973
116.155251,-34.16,6.822,11.296
116.165908,-34.09,4.134,15.656
116.176565,-29.54,1.681,19.488
116.187269,-23.87,0.141,21.775
116.197973,-22.47,0.307,20.028
116.208677,-26.46,1.186,14.638
116.219381,-30.17,2.763,9.728
116.230085,-34.09,3.492,8.008
116.240789,-37.66,1.271,10.531
116.251493,-32.34,-3.833,18.516
116.262197,-21.35,-8.893,23.025
116.272901,-13.09,-11.891,18.659
116.283605,-1.05,-11.729,16.128
116.294309,10.99,-11.036,10.991
116.305013,16.45,-10.433,1.928
116.31572,13.72,-8.257,-9.204
116.326427,7.49,-6.304,-16.252
116.337134,0.42,-6.065,-18.413
116.347841,-3.36,-8.072,-16.705
116.358548,-3.78,-10.837,-13.923
116.369255,-0.56,-13.265,-10.229
116.379962,6.3,-13.561,-5.732
116.390669,15.47,-13.516,-3.165
116.401376,24.85,-12.494,-2.914
116.412083,32.76,-10.718,-3.311
116.42279,38.71,-9.214,-4.183
116.433497,41.3,-8.451,-4.476
116.444204,40.53,-8.492,-3.843
116.454931,35.77,-8.236,-2.874
116.465658,28.07,-8.269,-3.093
116.476385,17.85,-8.029,-4.046
116.487112,7.49,-6.988,-5.923
116.497839,-1.96,-7.134,-7.513
116.508566,-9.24,-7.547,-7.586
116.519293,-12.95,-8.135,-6.268
116.53002,-12.88,-8.192,-5.141
116.540747,-9.87,-8.735,-4.881
116.551474,-6.44,-9.676,-3.981
116.562201,-3.64,-10.434,-2.906
116.572928,-1.26,-11.411,-1.799
116.583676,0.28,-11.768,-0.582
116.594424,-0.49,-12.465,0.148
116.605172,-3.36,-13.312,0.922
116.61592,-7.56,-13.596,1.725
116.626668,-12.74,-13.872,1.677
116.637416,-18.48,-14.233,0.902
116.648164,-23.45,-13.495,-0.46
116.658912,-27.02,-12.25,-1.876
116.66966,-30.45,-11.8,-2.01
116.680408,-33.04,-10.863,-1.276
116.691156,-33.25,-9.168,-0.408
116.701904,-34.58,-8.207,0.188
116.712683,-36.68,-9.172,1.226
116.723462,-42.07,-10.206,3.46
116.734241,-52.29,-9.573,4.709
116.74502,-61.53,-7.748,6.453
116.755799,-64.61,-6.836,8.533
116.766578,-61.6,-7.809,9.214
116.777357,-56,-7.606,8.468
116.788136,-48.44,-6.443,4.693
116.798915,-37.38,-3.868,0.171
116.809694,-23.66,-0.382,-3.479
116.820473,-12.04,3.742,-7.514
116.831252,-7,7.845,-13.046
116.84206,-7.63,8.177,-15.333
116.852868,-11.06,4.698,-10.118
116.863676,-13.09,-0.332,1.079
116.874484,-13.93,-5.214,8.605
116.885292,-12.74,-9.098,11.688
116.8961,-10.43,-12.443,13.728
116.906908,-6.86,-14.576,15.342
116.917716,-4.13,-14.474,14.365
116.928524,-2.66,-12.873,10.524
116.939332,-2.52,-11.325,6.177
116.95014,-2.87,-10.259,2.953
116.960948,-3.85,-8.666,-0.035
116.971745,-4.83,-7.494,-2.245
116.982542,-6.37,-7.555,-3.109
116.993339,-7.91,-7.672,-2.846
117.004136,-10.15,-7.689,-2.351
117.014933,-13.09,-7.664,-2.489
117.02573,-15.47,-7.778,-3.859
117.036527,-16.59,-7.113,-4.808
117.047324,-16.24,-6.241,-4.512
117.058121,-15.26,-5.633,-4.334
117.068918,-13.37,-4.725,-4.245
117.079715,-13.3,-3.699,-4.419
117.090512,-12.95,-2.786,-4.756
117.101309,-11.69,-2.178,-4.578
117.112106,-10.01,-0.856,-4.416
117.122903,-8.12,0.158,-4.521
117.1337,-5.32,1.196,-3.556
117.144497,-1.12,2.587,-2.174
117.155294,3.64,3.625,-2.417
117.166091,7.35,4.967,-3.176
117.176888,10.29,5.908,-4.076
117.187685,13.86,6.062,-3.338
117.198482,16.87,4.452,0.145
117.209279,18.48,2.15,5.141
117.220076,18.69,-1.179,10.312
117.230873,17.5,-4.832,14.501
117.24168,16.17,-8.979,18.674
117.252487,15.96,-13.735,21.461
117.263294,17.78,-18.066,24.251
117.274101,22.82,-21.747,27.796
117.284908,29.4,-23.766,30.781
117.295715,32.27,-24.221,27.715
117.306522,32.55,-23.857,20.814
117.317329,34.37,-22.082,13.166
117.328136,34.44,-21.109,8.859
117.338943,32.9,-21.6,8.417
117.34975,34.79,-25.934,12.842
117.360557,39.9,-29.214,16.528
117.371347,36.19,-29.045,5.896
117.382137,38.99,-26.419,-1.744
117.392927,47.32,-22.684,-4.782
117.403717,52.64,-21.196,-7.576
117.414507,50.54,-21.03,-8.115
117.425297,45.22,-20.669,-7.341
117.436087,38.5,-20.292,-5.853
117.446877,32.62,-18.593,-5.411
117.457667,25.48,-17.056,-6.064
117.468457,20.16,-14.652,-7.204
117.479247,16.1,-12.036,-6.316
117.490037,14.77,-9.875,-4.869
117.500827,14.14,-7.397,-4.005
117.511607,13.37,-5.357,-4.285
117.522387,12.95,-4.051,-3.629
117.533167,11.97,-3.844,-2.384
117.543947,10.29,-3.289,-0.296
117.554727,8.26,-3.503,0.52
117.565507,6.72,-3.763,1.185
117.576287,5.53,-4.274,1.663
117.587067,3.99,-4.525,2.685
117.597847,0.7,-5.279,4.542
117.608627,-2.94,-6.215,6.225
117.619407,-6.79,-6.455,7.178
117.630187,-11.27,-5.704,8.163
117.640937,-13.79,-5.68,8.026
117.651687,-14,-5.518,6.704
117.662437,-12.88,-4.813,5.122
117.673187,-10.71,-3.661,2.624
117.683937,-7.28,-2.161,0.969
117.694687,-4.06,-1.436,-0.324
117.705437,-1.89,-1.164,-1.058
117.716187,-1.26,-0.649,-1.963
117.726937,-3.57,-0.982,-3.301
117.737687,-7.7,-1.217,-3.982
117.748437,-11.69,-1.691,-3.71
117.759187,-13.51,-1.971,-3.333
117.769937,-17.64,-2.085,-3.495
117.780642,-23.8,-1.975,-4.116
117.791347,-28.98,-1.971,-4.541
117.802052,-32.48,-1.529,-5.032
117.812757,-32.2,-2.284,-4.383
117.823462,-28.63,-3.719,-1.082
117.834167,-24.01,-5.506,3.01
117.844872,-25.34,-6.147,3.821
117.855577,-31.85,-6.561,2.539
117.866282,-36.19,-6.435,3.841
117.876987,-35.14,-5.567,6.979
117.887692,-30.1,-5.424,8.995
117.898397,-20.58,-5.631,8.958
117.909102,-8.89,-7.03,9.636
117.919783,-2.73,-5.502,6.209
117.930464,-0.98,-2.251,-0.539
117.941145,3.36,0.279,-4.002
117.951826,5.95,1.159,-4.558
117.962507,2.8,1.114,-4.708
117.973188,-0.49,-0.24,-3.881
117.983869,-4.27,-2.538,-0.519
117.99455,-6.79,-5.624,4.482
118.005231,-7.91,-8.376,8.403
118.015912,-8.12,-9.982,10.252
118.026593,-8.89,-10.655,10.845
118.037274,-7.77,-10.537,10.581
118.047945,-4.55,-8.814,8.468
118.058616,-0.63,-6.605,6.014
118.069287,3.43,-4.444,3.837
118.079958,4.69,-2.786,1.286
118.090629,5.25,-0.88,-0.653
118.1013,5.53,-0.317,-1.833
118.111971,5.18,0.3,-2.506
118.122642,3.78,0.45,-2.551
118.133313,1.05,0.681,-2.652
118.143984,-1.96,0.786,-2.847
118.154655,-4.48,0.961,-1.821
118.165326,-7.84,1.484,-1.16
118.175969,-11.69,1.598,0.211
118.186612,-15.68,1.78,1.593
118.197255,-17.29,1.854,3.597
118.207898,-17.64,1.521,5.884
118.218541,-18.34,1.83,6.151
118.229184,-19.39,2.559,5.64
118.239827,-20.58,3.391,5.36
118.25047,-21.84,4.51,5.06
118.261113,-22.19,5.945,4.176
118.271756,-23.31,7.603,1.625
118.282399,-24.43,9.886,-1.242
118.293042,-24.43,11.426,-3.529
118.303685,-23.73,13.888,-5.797
118.314325,-24.71,17.338,-8.031
118.324965,-26.46,21.093,-9.573
118.335605,-32.06,24.819,-10.55
118.346245,-40.67,26.737,-11.35
118.356885,-50.54,27.037,-10.23
118.367525,-56.28,25.716,-6.767
118.378165,-55.51,24.171,-2.846
118.388805,-49.84,22.193,-1.702
118.399445,-43.12,18.839,-0.019
118.410085,-33.32,13.601,5.099
118.420725,-21.91,7.26,10.023
118.431365,-12.6,2.342,14.131
118.442005,-10.01,-0.266,13.6
118.4526,-12.39,0.163,5.928
118.463195,-17.78,3.049,-6.002
118.47379,-24.01,6.08,-15.134
118.484385,-30.45,8.241,-20.937
118.49498,-35.07,8.772,-23.545
118.505575,-34.86,7.393,-21.371
118.51617,-30.24,5.176,-16.857
118.526765,-22.89,3.445,-13.893
118.53736,-15.68,2.606,-11.553
118.547955,-9.1,2.119,-10.004
118.55855,-3.5,1.56,-8.041
118.569145,0.28,1.54,-5.912
118.579749,4.13,2.051,-3.974
118.590353,7.14,3.458,-3.086
118.600957,7.91,4.582,-3.812
118.611561,7,6.078,-3.833
118.622165,3.78,6.439,-3.058
118.632769,-0.49,6.52,-1.907
118.643373,-5.53,6.5,-0.986
118.653977,-10.64,7.056,-0.106
118.664581,-16.31,7.559,0.267
118.675185,-21.07,7.79,0.165
118.685789,-24.71,7.802,0.096
118.696393,-27.23,7.356,1.013
118.706983,-28.42,5.961,2.473
118.717573,-28.14,4.027,3.767
118.728163,-25.55,2.782,5.182
118.738753,-23.8,1.676,6.622
118.749343,-21.56,1.453,7.08
118.759933,-19.81,1.842,6.082
118.770523,-19.46,2.754,3.329
118.781113,-24.22,3.767,-0.402
118.791703,-35,4.922,-4.534
118.802293,-51.38,6.365,-6.27
118.812883,-66.36,4.983,-6.087
118.823473,-78.33,3.373,-3.812
118.834063,-92.96,3.997,-8.962
118.844658,-98.7,3.672,-12.36
118.855253,-89.88,4.354,-10.179
118.865848,-71.26,4.889,-10.795
118.876443,-50.12,4.552,-10.499
118.887038,-28.35,4.098,-9.939
118.897633,-10.08,3.502,-8.978
118.908228,3.85,3.64,-7.746
118.918823,12.04,3.312,-4.676
118.929418,16.31,2.186,0.101
118.940013,17.29,0.97,4.578
118.950608,17.36,-0.165,6.581
118.961203,17.64,-1.074,6.492
118.971808,18.06,-1.394,6.294
118.982413,20.44,-0.863,7.311
118.993018,23.31,-1.009,8.139
119.003623,26.6,-0.587,7.36
119.014228,27.51,-0.652,5.714
119.024833,26.39,-1.155,4.132
119.035438,23.03,-1.995,2.847
119.046043,18.13,-3.499,2.511
119.056648,13.02,-5.389,2.746
119.067253,9.66,-6.905,2.479
119.077858,6.72,-9.164,1.583
119.088463,5.46,-10.19,0.549
119.099068,5.11,-10.032,-0.347
119.10971,6.02,-9.339,-1.86
119.120352,7.42,-8.289,-3.381
119.130994,9.87,-6.46,-3.271
119.141636,11.76,-5.548,-3.608
119.152278,12.74,-5.321,-3.284
119.16292,13.16,-5.089,-2.177
119.173562,13.02,-4.931,-0.656
119.184204,14,-4.684,-0.044
119.194846,15.68,-4.371,-0.202
119.205488,15.75,-4.582,-1.021
119.21613,15.89,-4.708,-2.323
119.226772,15.68,-5.402,-3.227
119.237457,15.05,-6.257,-2.809
119.248142,17.08,-8.479,-1.495
119.258827,19.95,-11.617,2.998
119.269512,23.31,-13.526,7.779
119.280197,23.38,-14.467,11.096
119.290882,18.34,-15.545,11.972
119.301567,10.78,-16.802,12.248
119.312252,7.28,-19.028,13.988
119.322937,6.3,-21.822,16.126
119.333622,8.19,-24.299,21.304
119.344307,20.23,-28.73,28.697
119.354992,35.77,-28.778,27.764
119.365675,36.89,-26.79,12.051
119.376358,33.32,-22.987,2.984
119.387041,32.83,-20.425,-0.261
119.397724,28.14,-20.061,-3.537
119.408407,18.55,-18.22,-7.122
119.41909,10.08,-14.51,-8.814
119.429773,1.19,-11.133,-11.843
119.440456,-5.88,-7.617,-14.848
119.451139,-8.96,-3.449,-16.317
119.461822,-7.84,0.849,-18.118
119.472505,-6.09,3.704,-18.183
119.483188,-4.83,5.164,-17.997
119.493871,-3.64,4.689,-16.517
119.504554,-0.91,3.044,-11.618
119.515249,1.89,-0.24,-5.089
119.525944,5.32,-4.48,2.835
119.536639,7.42,-9.033,9.709
119.547334,6.93,-12.869,13.724
119.558029,6.72,-14.916,14.856
119.568724,6.58,-15.172,13.886
119.579419,7.42,-13.213,12.455
119.590114,9.24,-10.769,10.682
119.600809,9.87,-8.239,8.427
119.611504,7.98,-5.636,5.759
119.622199,4.2,-3.742,2.681
119.63291,-1.75,-3.236,0.211
119.643621,-6.79,-4.44,-0.214
119.654332,-10.08,-6.764,0.869
119.665043,-10.92,-8.71,3.44
119.675754,-10.64,-9.877,5.224
119.686465,-11.41,-10.704,6.287
119.697176,-14.07,-11.511,7.637
119.707887,-17.22,-11.888,9.774
119.718598,-19.39,-10.047,11.023
119.729309,-21.28,-6.73,8.338
119.74002,-18.41,-2.12,5.17
119.750731,-7.07,0.483,4.919
119.761473,7.7,2.409,4.476
119.772215,20.93,3.106,2.538
119.782957,33.67,3.078,-0.524
119.793699,44.03,1.837,-1.951
119.804441,50.68,-0.081,-1.152
119.815183,52.29,-1.825,-0.535
119.825925,48.23,-3.41,-0.815
119.836667,43.05,-4.424,-1.917
119.847409,38.36,-5.694,-2.781
119.858151,34.51,-7.368,-2.152
119.868893,31.15,-9.432,-0.526
119.879635,29.4,-11.256,1.356
119.890403,29.4,-11.848,3.1
119.901171,30.24,-12.821,4.989
119.911939,31.5,-14.256,7.082
119.922707,33.46,-15.323,9.097
119.933475,35.28,-15.833,10.784
119.944243,37.52,-15.399,11.145
119.955011,39.76,-14.142,9.661
119.965779,40.81,-12.918,7.958
119.976547,38.22,-11.3,6.039
119.987315,33.25,-9.8,5.593
119.998083,27.09,-7.943,5.139
120.008851,21.49,-6.037,4.409
120.019604,17.85,-3.495,3.293
120.030357,16.1,-1.277,2.405
120.04111,17.5,0.511,1.938
120.051863,19.67,2.17,0.596
120.062616,20.16,3.155,-0.155
120.073369,18.06,4.006,-0.147
120.084122,14.21,5.774,-0.901
120.094875,10.01,8.223,-1.891
120.105628,4.55,10.77,-3.432
120.116381,-0.42,14.642,-6.445
120.127134,-5.25,18.072,-10.176
120.137887,-6.58,21.072,-11.069
120.14864,-7,20.849,-10.611
120.159391,-13.93,21.993,-11.049
120.170142,-23.66,26.311,-16.187
120.180893,-26.88,29.367,-20.624
120.191644,-25.55,28.232,-18.62
120.202395,-26.53,25.869,-12.071
120.213146,-32.41,25.184,-10.202
120.223897,-36.12,24.239,-11.292
120.234648,-32.27,21.494,-9.431
120.245399,-25.41,18.644,-2.541
120.25615,-20.65,16.354,1.178
120.266901,-19.11,16.5,-0.858
120.277652,-17.85,17.428,-4.106
120.288413,-15.89,18.547,-5.615
120.299174,-15.26,19.252,-7.196
120.309935,-15.96,19.617,-8.056
120.320696,-17.64,19.353,-8.174
120.331457,-19.81,18.992,-8.948
120.342218,-24.29,18.899,-8.822
120.352979,-30.31,19.637,-8.976
120.36374,-36.05,20.939,-10.311
120.374501,-40.81,22.204,-11.438
120.385262,-45.36,23.217,-12.752
120.396023,-48.72,24.227,-13.64
120.406784,-51.17,24.969,-14.22
120.417555,-53.2,25.609,-15.031
120.428326,-53.06,26.071,-15.234
120.439097,-52.36,26.092,-14.946
120.449868,-49.98,25.321,-13.803
120.460639,-45.92,24.231,-11.649
120.47141,-41.16,23.023,-9.232
120.482181,-37.1,21.823,-7.667
120.492952,-34.02,20.477,-6.483
120.503723,-31.85,19.358,-6.183
120.514494,-29.47,18.644,-6.166
120.525265,-27.44,18.096,-6.689
120.536036,-25.9,17.33,-7.18
120.546772,-23.59,16.896,-7.541
120.557508,-20.02,15.813,-7.447
120.568244,-16.1,13.016,-6.092
120.57898,-11.2,9.464,-4.089
120.589716,-5.88,5.762,-2.04
120.600452,-0.7,2.388,0.563
120.611188,2.59,-0.794,2.49
120.621924,3.57,-2.923,3.678
120.63266,2.87,-4.711,4.145
120.643396,0.21,-6.175,3.176
120.654132,-3.15,-7.501,2.231
120.664868,-5.95,-8.523,1.98
120.675604,-8.4,-9.805,2.394
120.686315,-9.1,-11.844,5.091
120.697026,-10.5,-13.283,5.192
120.707737,-15.75,-14.156,1.271
120.718448,-19.81,-13.909,-0.533
120.729159,-14.91,-12.992,-1.296
120.73987,-5.04,-12.129,-2.565
120.750581,3.99,-9.623,-4.682
120.761292,8.61,-6.457,-7.322
120.772003,11.34,-3.951,-10.648
120.782714,11.41,-2.864,-11.167
120.793425,8.33,-1.457,-7.862
120.804136,3.01,-0.755,-5.393
120.814832,-3.71,-0.252,-3.812
120.825528,-9.52,0.511,-1.687
120.836224,-13.51,1.144,0.77
120.84692,-13.93,1.213,1.991
120.857616,-10.85,1.302,2.291
120.868312,-6.93,0.524,3.078
120.879008,-2.87,-0.016,4.12
120.889704,1.82,-0.06,5.178
120.9004,4.83,0.074,5.628
120.911096,5.81,0.362,5.608
120.921792,5.04,0.723,5.174
120.932488,1.26,1.829,3.734
120.94319,-3.08,2.823,2.133
120.953892,-7.49,4.254,0.466
120.964594,-10.92,5.182,-0.366
120.975296,-13.79,5.523,-1.088
120.985998,-14.7,5.283,-1.343
120.9967,-14.91,5.259,-1.205
121.007402,-14.07,5.158,-1.436
121.018104,-12.32,5.462,-1.951
121.028806,-9.87,6.094,-1.911
121.039508,-5.95,6.978,-1.684
121.05021,-3.08,7.676,-2.414
121.060912,-2.73,8.844,-2.99
121.071603,-4.2,10.709,-3.087
121.082294,-6.3,12.38,-2.082
121.092985,-8.47,13.986,0.902
121.103676,-10.64,15.454,3.862
121.114367,-13.44,16.083,5.537
121.125058,-15.96,16.517,7.106
121.135749,-16.8,17.085,7.917
121.14644,-17.36,18.625,5.63
121.157131,-18.48,20.92,1.485
121.167822,-17.99,23.815,-1.629
121.178513,-17.22,26.345,-3.884
121.189204,-18.62,28.133,-3.142
121.199895,-19.11,28.255,-0.207
121.210596,-19.32,26.151,3.261
121.221297,-21.98,23.735,6.886
121.231998,-24.29,21.047,10.037
121.242699,-25.27,18.18,12.588
121.2534,-27.3,16.149,12.017
121.264101,-31.85,16.221,7.978
121.274802,-34.86,18.033,2.54
121.285503,-35.56,20.153,-1.422
121.296204,-34.79,20.635,-3.754
121.306905,-34.09,18.13,-1.637
121.317606,-29.26,12.003,4.889
121.328307,-20.3,5.902,11.276
121.338983,-15.68,1.06,13.337
121.349659,-12.46,-2.301,14.663
121.360335,-9.31,-4.795,13.086
121.371011,-8.05,-6.657,10.341
121.381687,-6.51,-6.568,7.016
121.392363,-6.3,-5.336,2.044
121.403039,-6.44,-4.169,-2.157
121.413715,-5.74,-2.669,-6.228
121.424391,-4.06,-0.865,-8.398
121.435067,-1.12,0.55,-9.57
121.445743,1.4,1.507,-9.757
121.456419,5.18,2.269,-10.049
121.467095,9.24,3.964,-10.389
121.477772,12.74,6.227,-12.336
121.488449,14.56,8.89,-15.349
121.499126,13.79,11.051,-18.736
121.509803,11.97,12.616,-19.952
121.52048,10.43,14.137,-20.111
121.531157,7.91,14.518,-20.257
121.541834,5.39,13.78,-20.103
121.552511,2.73,13.314,-19.474
121.563188,1.19,12.434,-17.71
121.573865,0,11.741,-16.197
121.584542,-0.63,10.934,-14.847
121.595219,-0.91,10.399,-13.022
121.605881,-1.05,10.185,-10.999
121.616543,-0.21,9.921,-9.908
121.627205,0.49,9.711,-8.31
121.637867,0.28,9.496,-6.287
121.648529,-0.35,8.969,-4.105
121.659191,-1.61,7.66,-1.919
121.669853,-3.57,6.776,-0.938
121.680515,-7.14,5.519,-0.662
121.691177,-10.78,4.201,-0.041
121.701839,-12.04,3.301,0.227
121.712501,-12.95,2.149,0.308
121.723163,-13.02,1.314,-0.195
121.733825,-12.53,0.977,-2.316
121.744501,-11.97,0.766,-5.551
121.755177,-11.41,0.409,-6.752
121.765853,-10.29,0.441,-7.741
121.776529,-10.22,0.485,-8.799
121.787205,-10.92,0.639,-9.27
121.797881,-11.41,-0.192,-7.782
121.808557,-10.57,-1.566,-6.034
121.819233,-13.37,-2.568,-5.997
121.829909,-20.09,-3.674,-4.557
121.840585,-24.15,-5.304,-1.362
121.851261,-28,-8.353,2.223
121.861937,-27.16,-12.44,6.052
121.872595,-22.05,-17.382,10.298
121.883253,-18.41,-20.606,11.649
121.893911,-11.76,-23.018,12.432
121.904569,-1.82,-24.819,12.967
121.915227,8.05,-25.472,11.431
121.925885,16.8,-25.675,7.343
121.936543,22.54,-25.656,2.797
121.947201,28.14,-26.43,1.95
121.957859,31.99,-28.587,2.494
121.968517,33.11,-31.345,3.216
121.979175,32.97,-33.899,4.4
121.989833,30.59,-36.956,5.212
122.000491,27.86,-38.984,5.423
122.011153,24.43,-39.799,5.208
122.021815,21.28,-39.264,4.592
122.032477,17.22,-37.646,2.673
122.043139,13.86,-35.193,0.05
122.053801,10.15,-32.278,-2.777
122.064463,6.51,-30.429,-4.797
122.075125,3.71,-28.463,-5.872
122.085787,1.68,-26.74,-6.776
122.096449,-0.42,-25.483,-7.052
122.107111,-2.1,-24.781,-5.791
122.117773,-3.08,-24.432,-4.948
122.128435,-4.41,-23.86,-4.563
122.139072,-5.18,-23.613,-3.95
122.149709,-5.95,-23.155,-3.727
122.160346,-5.95,-22.311,-2.868
122.170983,-5.53,-21.849,-1.862
122.18162,-3.57,-21.715,-0.204
122.192257,-1.61,-21.743,1.568
122.202894,1.26,-22.087,2.716
122.213531,3.71,-22.29,3.462
122.224168,5.74,-22.188,3.693
122.234805,7.07,-22.128,2.14
122.245442,7.56,-21.755,-0.78
122.256079,6.93,-21.597,-2.884
122.266716,5.95,-21.447,-4.137
122.27738,3.01,-22.214,-3.419
122.288044,-0.42,-24.31,0.405
122.298708,-2.66,-27.991,6.366
122.309372,-3.5,-32.629,13.723
122.320036,-3.5,-37.668,20.937
122.3307,-0.98,-41.499,26.943
122.341364,6.65,-44.126,30.958
122.352028,18.27,-46.745,34.121
122.362692,36.33,-49.093,37.759
122.373356,52.22,-47.961,37.39
122.38402,56.77,-41.949,29.494
122.394684,51.87,-31.902,16.054
122.405352,38.99,-20.854,2.578
122.41602,32.55,-14.525,-1.068
122.426688,33.04,-12.676,-0.671
122.437356,18.27,-10.135,-11.454
122.448024,11.41,-8.814,-17.334
122.458692,17.78,-7.337,-12.809
122.46936,26.88,-6.371,-7.805
122.480028,27.3,-5.512,-7.44
122.490696,21.98,-4.656,-9.066
122.501364,14.77,-3.156,-7.096
122.512032,10.43,-0.601,-4.655
122.5227,6.79,0.997,-4.444
122.533368,4.69,2.445,-4.189
122.544035,1.96,2.818,-4.692
122.554702,1.19,3.085,-6.209
122.565369,0.63,3.129,-7.267
122.576036,-0.35,2.724,-6.983
122.586703,-2.38,2.371,-7.401
122.59737,-5.81,3.223,-8.601
122.608037,-10.15,4.601,-10.775
122.618704,-16.03,6.993,-13.054
122.629371,-22.19,10.225,-15.256
122.640038,-27.72,13.485,-16.814
122.650705,-34.02,16.773,-17.727
122.661372,-41.02,20.224,-18.753
122.672022,-47.32,22.758,-20.225
122.682672,-51.87,25.053,-20.745
122.693322,-54.46,26.695,-20.384
122.703972,-56.07,27.121,-20.38
122.714622,-59.22,26.59,-21.398
122.725272,-64.33,25.657,-22.557
122.735922,-71.75,23.966,-25.059
122.746572,-81.2,21.93,-27.622
122.757222,-91.14,19.35,-28.716
122.767872,-100.38,16.707,-29.04
122.778522,-106.54,13.933,-27.823
122.789172,-107.66,12.312,-24.271
122.799822,-104.09,12.207,-19.243
122.810487,-97.02,13.42,-14.835
122.821152,-85.96,15.01,-12.564
122.831817,-71.68,17.233,-7.837
122.842482,-59.57,19.565,-3.729
122.853147,-50.54,20.854,-2.578
122.863812,-43.61,22.777,-2.594
122.874477,-40.6,24.618,-1.346
122.885142,-38.85,25.932,-0.332
122.895807,-38.22,26.167,0.349
122.906472,-36.54,24.63,2.211
122.917137,-33.6,21.273,5.528
122.927802,-31.15,17.304,7.885
122.938458,-29.96,13.922,11.34
122.949114,-30.94,12.925,12.159
122.95977,-32.55,15.037,10.257
122.970426,-27.72,17,9.608
122.981082,-11.55,15.337,10.168
122.991738,0.14,16.408,7.727
123.002394,-0.35,18.466,-0.724
123.01305,1.82,18.121,-4.41
123.023706,7.91,16.041,-1.081
123.034362,13.37,13.524,1.105
123.045018,16.66,12.019,0.769
123.055674,18.34,10.79,-0.727
123.06633,20.16,9.537,-0.877
123.07699,19.74,8.321,-1.234
123.08765,17.36,7.81,-1.964
123.09831,13.3,7.85,-2.596
123.10897,8.68,7.647,-1.85
123.11963,2.59,6.087,0.149
123.13029,-2.59,5.049,2.809
123.14095,-6.02,4.81,4.971
123.15161,-8.05,5.374,6.207
123.16227,-9.31,6.728,6.588
123.17293,-10.43,8.825,6.389
123.18359,-10.92,10.779,5.384
123.19425,-11.69,12.859,4.471
123.204952,-12.46,14.315,3.875
123.215654,-13.65,15.45,4.288
123.226356,-14.28,15.653,4.75
123.237058,-13.79,15.787,5.2
123.24776,-12.81,16.156,5.123
123.258462,-11.2,16.979,4.487
123.269164,-9.45,18.333,3.659
123.279866,-6.72,20.121,1.984
123.290568,-3.99,22.343,0.67
123.30127,-1.54,23.928,-0.259
123.311972,0.28,24.889,-0.871
123.322674,-0.42,24.739,-0.827
123.33338,-3.57,22.651,-0.271
123.344086,-11.13,19.103,0.099
123.354792,-24.08,15.17,1.04
123.365498,-40.18,11.164,2.395
123.376204,-56.49,6.756,3.608
123.38691,-68.88,1.862,5.162
123.397616,-75.32,-3.474,7.206
123.408322,-75.32,-9.167,10.467
123.419028,-71.61,-15.707,15.711
123.429734,-67.83,-21.691,23.043
123.44044,-62.44,-24.974,30.781
123.451146,-55.93,-23.482,33.603
123.461852,-54.39,-17.282,30.289
123.472583,-53.55,-10.142,28.492
123.483314,-46.76,-6.191,33.098
123.494045,-35.14,-5.704,41.216
123.504776,-24.78,-5.371,43.762
123.515507,-14.7,-2.918,42.347
123.526238,2.52,1.551,41.997
123.536969,20.23,7.296,38.035
123.5477,27.58,11.681,18.408
123.558431,29.12,12.494,4.122
123.569162,34.3,12.133,4.556
123.579893,35.56,8.358,5.81
123.590624,27.93,4.757,2.047
123.601354,16.45,2.899,-4.749
123.612084,9.38,2.987,-10.491
123.622814,6.23,4.925,-13.419
123.633544,4.76,6.713,-15.094
123.644274,4.34,7.581,-14.372
123.655004,8.26,8.202,-10.637
123.665734,12.67,9.244,-7.681
123.676464,14.98,10.335,-6.21
123.687194,16.59,11.949,-5.285
123.697924,16.66,13.332,-5.468
123.708654,16.1,13.356,-5.606
123.719384,15.75,12.521,-6.109
123.730114,14.7,10.7,-7.069
123.740875,12.67,7.829,-7.718
123.751636,9.87,5.242,-7.961
123.762397,7.63,2.837,-8.029
123.773158,5.18,0.927,-9.29
123.783919,2.66,-0.184,-9.841
123.79468,0.77,-1.55,-10.153
123.805441,-1.61,-3.412,-10.482
123.816202,-4.2,-6.169,-10.968
123.826963,-6.86,-9.138,-12.273
123.837724,-9.24,-12.013,-13.704
123.848485,-11.2,-15.322,-15.496
123.859246,-14.14,-18.927,-17.624
123.870024,-20.72,-22.269,-20.844
123.880802,-29.47,-25.866,-25.032
123.89158,-39.55,-29.869,-28.936
123.902358,-49.98,-33.693,-32.241
123.913136,-59.99,-36.167,-34.738
123.923914,-68.39,-36.042,-35.853
123.934692,-73.22,-33.358,-37.37
123.94547,-76.51,-29.173,-40.542
123.956248,-78.89,-24.49,-42.915
123.967026,-80.78,-17.771,-41.517
123.977804,-78.12,-9.907,-36.931
123.988582,-72.59,-2.105,-30.793
123.99936,-67.69,4.096,-23.232
124.010138,-65.8,8.25,-14.538
124.020927,-66.43,10.716,-6.356
124.031716,-63.56,11.236,0.773
124.042505,-55.37,10.941,5.27
124.053294,-44.87,8.428,9.447
124.064083,-26.95,7.062,15.177
124.074872,-7.07,6.166,17.436
124.085661,5.95,3.899,12.558
124.09645,19.18,-0.514,8.155
124.107239,34.23,-4.147,10.215
124.118028,46.41,-6.519,9.157
124.128817,50.05,-6.65,3.448
124.139584,48.02,-4.757,-0.839
124.150351,42,-3.317,-2.149
124.161118,33.46,-2.522,0.195
124.171885,24.29,-2.363,4.132
124.182652,17.22,-1.901,6.346
124.193419,11.55,-0.725,7.336
124.204186,6.16,-0.206,7.214
124.214953,2.52,-0.425,7.246
124.22572,1.05,-1.066,6.849
124.236487,2.24,-1.832,6.358
124.247254,4.9,-1.702,6.026
124.258021,8.61,-0.944,4.951
124.268788,12.18,0.053,4.132
124.279527,14.49,1.683,2.145
124.290266,14.63,3.852,-0.885
124.301005,12.88,5.952,-2.718
124.311744,10.85,8.641,-3.452
124.322483,8.4,11.475,-3.805
124.333222,4.97,13.77,-4.325
124.343961,1.54,16.499,-4.483
124.3547,-0.56,19.828,-4.82
124.365439,-1.82,23.96,-6.082
124.376178,-2.38,28.42,-6.788
124.386917,-1.61,32.244,-7.109
124.397656,-0.56,35.934,-6.671
124.408395,0.35,38.501,-5.508
124.419093,0.21,39.337,-2.589
124.429791,0.49,39.37,2.464
124.440489,1.05,38.641,7.809
124.451187,2.03,36.764,14.017
124.461885,2.03,34.211,20.035
124.472583,0.98,30.935,25.712
124.483281,0.49,26.143,31.122
124.493979,-0.14,20.568,36.537
124.504677,-1.68,14.92,42.364
124.515375,-2.94,10.16,47.993
124.526073,-5.53,6.629,51.493
124.536771,-9.24,3.483,53.213
124.547473,-16.03,1.151,52.731
124.558175,-23.66,-0.277,52.764
124.568877,-28.21,-0.633,53.98
124.579579,-30.52,-1.654,58.562
124.590281,-25.69,-0.765,66.822
124.600983,-14.84,3.047,71.404
124.611685,-12.81,5.426,63.152
124.622387,-16.8,3.535,50.095
124.633089,-16.31,1.247,43.721
124.643791,-9.24,-2.323,35.344
124.654493,-3.57,-4.725,20.349
124.665195,0.49,-4.882,2.693
124.675864,2.31,-4.516,-16.718
124.686533,3.57,-5.033,-35.148
124.697202,4.48,-5.128,-47.106
124.707871,6.23,-4.691,-50.796
124.71854,9.24,-3.815,-49.718
124.729209,10.29,-3.782,-47.082
124.739878,9.87,-5.05,-43.112
124.750547,7.35,-6.651,-36.855
124.761216,4.41,-8.045,-30.561
124.771885,1.68,-8.43,-23.948
124.782554,-0.28,-8.554,-17.999
124.793223,-1.89,-9.41,-13.956
124.803892,-3.5,-10.188,-10.752
124.814553,-4.97,-11.984,-8.226
124.825214,-5.74,-13.557,-6.158
124.835875,-6.37,-15.843,-4.073
124.846536,-6.72,-17.871,-2.654
124.857197,-6.79,-20.442,-2.183
124.867858,-7.07,-22.262,-1.935
124.878519,-7.35,-22.964,-1.988
124.88918,-8.12,-22.72,-2.158
124.899841,-8.47,-21.828,-2.783
124.910502,-9.38,-20.304,-3.367
124.921163,-10.64,-18.897,-3.687
124.931824,-11.97,-18.049,-3.254
124.942498,-13.3,-18.159,-2.633
124.953172,-14.63,-18.828,-2.467
124.963846,-17.57,-19.7,-2.763
124.97452,-20.3,-20.527,-2.909
124.985194,-22.68,-21.33,-3.192
124.995868,-24.08,-21.326,-3.618
125.006542,-25.34,-21.188,-4.802
125.017216,-27.3,-20.264,-6.416
125.02789,-28.77,-19.57,-7.929
125.038564,-28.21,-19.814,-7.758
125.049238,-27.58,-21.967,-6.432
125.059912,-28.63,-25.36,-4.116
125.070567,-31.57,-29.614,-3.374
125.081222,-37.38,-32.802,-7.063
125.091877,-42.84,-34.21,-11.576
125.102532,-43.61,-33.078,-11.945
125.113187,-40.6,-30.276,-11.309
125.123842,-35,-26.838,-12.267
125.134497,-27.86,-24.404,-10.345
125.145152,-14.63,-23.97,-5.151
125.155807,-1.75,-21.825,-5.625
125.166462,2.45,-20.191,-11.663
125.177117,6.09,-17.284,-10.013
125.187772,12.18,-15.183,-7.013
125.198427,13.23,-13.796,-8.83
125.209091,9.24,-12.235,-9.621
125.219755,4.2,-12.365,-8.08
125.230419,1.75,-12.705,-6.15
125.241083,0.7,-12.287,-4.086
125.251747,-1.61,-11.516,-1.604
125.262411,-3.71,-9.647,0.289
125.273075,-5.53,-5.77,1.684
125.283739,-6.72,-0.697,3.147
125.294403,-8.33,4.818,4.119
125.305067,-10.01,12.754,4.666
125.315731,-10.71,22.352,3.444
125.326395,-9.73,32.923,0.332
125.337058,-7.56,42.09,-5.302
125.347721,-5.53,49.457,-10.4
125.358384,-3.08,54.064,-11.933
125.369047,-1.75,56.071,-11.224
125.37971,-3.08,55.268,-10.299
125.390373,-6.3,53.492,-8.693
125.401036,-9.66,51.473,-5.708
125.411699,-12.6,49.114,-2.002
125.422362,-13.16,47.285,1.514
125.433025,-11.62,45.676,4.997
125.443688,-8.68,43.722,8.42
125.454351,-5.88,41.606,10.748
125.465014,-3.85,39.392,12.419
125.475697,-1.89,36.996,13.916
125.48638,-0.35,33.874,15.498
125.497063,1.47,30.35,18.146
125.507746,1.68,26.559,21.103
125.518429,-0.07,22.119,24.513
125.529112,-2.38,18.037,29.124
125.539795,-4.62,14.148,32.633
125.550478,-6.44,10.884,34.616
125.561161,-10.57,10.211,34
125.571844,-15.54,10.637,32.795
125.582527,-19.81,10.782,30.76
125.59321,-24.85,7.814,29.454
125.603877,-28.7,1.33,31.154
125.614544,-29.68,-5.186,35.052
125.625211,-21.28,-10.052,34.834
125.635878,-5.32,-13.463,26.769
125.646545,10.43,-14.51,20.614
125.657212,24.15,-14.884,16.283
125.667879,35,-12.991,8.371
125.678546,37.52,-8.175,-3.219
125.689213,29.89,-2.399,-15.421
125.69988,17.85,2.681,-22.06
125.710547,8.33,6.562,-23.508
125.721214,1.96,9.34,-22.734
125.731881,-0.35,11.911,-19.579
125.742578,-1.12,13.882,-16.246
125.753275,-1.4,14.851,-15.293
125.763972,-1.19,14.786,-15.731
125.774669,-0.42,14.194,-17.613
125.785366,0.91,12.981,-19.604
125.796063,1.89,11.274,-21.611
125.80676,2.52,10.187,-24.717
125.817457,2.94,9.083,-27.328
125.828154,2.59,8.73,-28.954
125.838851,2.52,8.138,-29.627
125.849548,2.24,8.195,-29.546
125.860245,1.4,7.794,-28.479
125.870926,-0.14,7.348,-26.354
125.881607,-1.33,6.254,-23.775
125.892288,-2.8,5.05,-20.576
125.902969,-3.78,3.829,-18.09
125.91365,-4.34,3.104,-16.796
125.924331,-5.25,3.218,-15.426
125.935012,-4.69,3.534,-16.01
125.945693,-3.99,3.639,-16.204
125.956374,-4.41,3.574,-16.642
125.967055,-3.71,3.225,-17.486
125.977736,-2.66,3.7,-18.966
125.988417,-1.26,4.985,-19.805
125.999098,-0.07,5.954,-21.269
126.009768,0.77,7.653,-23.244
126.020438,2.38,10.179,-25.073
126.031108,4.97,12.92,-26.509
126.041778,7.91,15.839,-27.345
126.052448,10.71,17.019,-25.573
126.063118,12.32,16.44,-21.482
126.073788,13.65,14.47,-15.147
126.084458,13.09,11.856,-8.785
126.095128,9.94,9.821,-2.889
126.105798,5.39,8.195,1.09
126.116468,-0.21,7.368,3.361
126.127138,-5.18,8.001,3.401
126.13782,-10.01,9.359,2.148
126.148502,-13.58,10.166,0.797
126.159184,-17.08,9.712,0.149
126.169866,-16.24,8.872,1.28
126.180548,-8.05,6.947,4.139
126.19123,1.54,4.534,6.131
126.201912,11.27,0.675,12.7
126.212594,23.87,-2.475,20.888
126.223276,35.14,-2.608,21.646
126.233958,40.25,0.724,17.258
126.24464,38.29,4.495,11.597
126.255322,29.33,5.528,9.362
126.26602,18.69,4.661,11.057
126.276718,8.54,2.54,13.811
126.287416,1.05,0.006,16.492
126.298114,-4.2,-2.422,18.978
126.308812,-5.39,-3.582,18.702
126.31951,-3.43,-3.319,16.403
126.330208,0.77,-2.476,13.637
126.340906,5.53,-1.929,11.744
126.351604,9.45,-1.657,11.01
126.362302,12.32,-1.807,9.846
126.373,14.14,-1.252,8.309
126.383698,15.12,-0.778,6.829
126.394376,14.49,-0.587,6.152
126.405054,13.3,-0.011,6.111
126.415732,10.99,0.755,5.393
126.42641,7.21,0.747,3.828
126.437088,3.01,0.763,2.125
126.447766,-1.26,0.321,1.407
126.458444,-3.71,-0.194,1.103
126.469122,-5.74,-0.134,0.758
126.4798,-6.93,0.353,0.418
126.490478,-6.79,1.014,-0.106
126.501156,-6.09,2.376,-0.576
126.511834,-5.95,4.176,-1.112
126.522512,-5.39,5.827,-1.603
126.53318,-5.95,6.755,-1.226
126.543848,-8.26,6.999,-0.188
126.554516,-10.43,5.223,2.627
126.565184,-12.67,2.3,6.305
126.575852,-14.07,-1.272,9.229
126.58652,-15.89,-3.713,10.576
126.597188,-17.99,-5.566,10.605
126.607856,-19.18,-6.381,9.181
126.618524,-18.83,-6.365,7.478
126.629192,-17.71,-4.76,3.212
126.63986,-17.64,-2.454,-4.626
126.650528,-19.46,-0.561,-12.538
126.661212,-21.56,1.324,-15.973
126.671896,-23.24,2.694,-14.878
126.68258,-25.13,2.874,-10.653
126.693264,-27.51,2.923,-7.303
126.703948,-26.25,4.18,-3.954
126.714632,-17.22,6.573,-3.817
126.725316,-6.37,6.244,-6.789
126.736,0.84,5.515,-1.444
126.746684,5.88,2.916,4.424
126.757368,8.33,1.529,5.032
126.768052,9.66,2.109,0.94
126.778736,10.43,4.387,-5.126
126.789449,8.54,6.434,-9.883
126.800162,5.67,6.673,-13.253
126.810875,2.94,6.555,-15.406
126.821588,1.96,6.048,-16.561
126.832301,0.7,5.148,-15.085
126.843014,0,2.963,-11.561
126.853727,-0.49,1.004,-8.921
126.86444,-1.4,-0.378,-6.322
126.875153,-2.52,-1.777,-4.436
126.885866,-3.22,-1.724,-3.929
126.896579,-2.87,-0.82,-4.623
126.907292,-2.1,0.579,-6.508
126.917996,-1.12,2.582,-7.79
126.9287,0,3.985,-8.893
126.939404,-0.35,4.865,-9.449
126.950108,-1.61,4.321,-9.189
126.960812,-3.36,3.065,-7.705
126.971516,-5.04,1.268,-6.387
126.98222,-6.72,0.052,-5.535
126.992924,-8.33,-0.276,-4.882
127.003628,-8.82,-0.252,-5.02
127.014332,-8.47,-0.135,-5.284
127.025036,-7.84,-0.755,-4.185
127.03574,-7.14,-1.776,-2.019
127.046444,-6.37,-3.431,0.106
127.057177,-5.32,-5.348,2.113
127.06791,-5.32,-7.505,3.865
127.078643,-6.44,-8.316,4.433
127.089376,-7.98,-8.758,3.716
127.100109,-10.22,-9.306,1.984
127.110842,-13.23,-9.44,0.326
127.121575,-15.33,-8.767,-1.475
127.132308,-16.94,-7.531,-3.247
127.143041,-18.13,-6.489,-5.125
127.153774,-17.99,-5.479,-6.013
127.164507,-17.15,-4.851,-5.547
127.17524,-15.54,-5.402,-3.227
127.185963,-13.72,-5.949,-0.125
127.196686,-12.18,-5.916,2.511
127.207409,-12.53,-5.287,2.977
127.218132,-18.97,-6.366,1.436
127.228855,-23.17,-7.659,3.127
127.239578,-23.73,-9.905,8.205
127.250301,-24.01,-11.969,12.248
127.261024,-25.06,-13.1,13.825
127.271747,-21.21,-12.269,13.545
127.28247,-13.37,-9.824,9.356
127.293193,-10.36,-7.846,0.962
127.303916,-7.14,-6.245,-1.67
127.314639,-0.91,-4.894,-0.863
127.325371,4.55,-4.266,-2.814
127.336103,8.4,-2.786,-4.756
127.346835,12.88,-1.473,-6.159
127.357567,15.33,-1.907,-5.312
127.368299,15.89,-3.277,-2.781
127.379031,15.26,-4.785,-0.275
127.389763,14.98,-5.681,1.984
127.400495,12.74,-5.956,3.143
127.411227,10.85,-5.044,2.807
127.421959,8.33,-3.146,1.72
127.432691,6.09,-1.261,-0.507
127.443423,3.5,0.539,-3.459
127.454136,0.98,2.262,-4.363
127.464849,-0.28,2.927,-5.312
127.475562,-1.96,3.247,-5.114
127.486275,-2.59,3.312,-4.676
127.496988,-3.08,3.43,-4.939
127.507701,-4.48,3.637,-4.903
127.518414,-6.3,4.764,-6.055
127.529127,-8.75,6.365,-7.478
127.53984,-10.71,7.853,-9.064
127.550553,-12.81,9.317,-9.303
127.561266,-14.56,10.542,-9.798
127.571979,-17.43,11.677,-10.593
127.582692,-19.11,12.395,-11.035
127.593411,-19.95,12.301,-10.91
127.60413,-18.27,12.127,-9.519
127.614849,-14.91,11.839,-8.29
127.625568,-12.46,11.596,-6.911
127.636287,-10.08,11.43,-5.164
127.647006,-7.14,11.962,-4.146
127.657725,-5.81,12.842,-3.493
127.668444,-6.51,12.485,-2.277
127.679163,-7.21,11.313,-0.066
127.689882,-8.33,9.197,3.47
127.700601,-9.1,5.986,7.168
127.71132,-8.12,2.033,11.447
127.722044,-7.14,-2.151,15.827
127.732768,-6.58,-6.38,20.057
127.743492,-4.97,-9.854,24.846
127.754216,-3.64,-11.946,28.245
127.76494,-5.32,-12.404,29.23
127.775664,-8.4,-12.409,27.239
127.786388,-14.42,-13.95,25.901
127.797112,-20.51,-16.119,27.722
127.807836,-22.68,-19.346,31.915
127.81856,-24.43,-23.522,37.861
127.829284,-25.69,-25.159,41.908
127.840008,-16.73,-22.893,43.16
127.850704,-2.59,-17.618,35.419
127.8614,4.55,-15.199,22.909
127.872096,9.31,-13.926,22.138
127.882792,12.46,-14.49,19.693
127.893488,13.93,-13.607,10.253
127.904184,12.46,-10.742,-0.757
127.91488,11.06,-8.484,-9.528
127.925576,9.38,-7.459,-15.744
127.936272,7.98,-7.383,-19.001
127.946968,8.47,-6.775,-20.031
127.957664,8.89,-5.854,-20.011
127.96836,8.82,-4.139,-18.855
127.979056,9.73,-2.379,-18.758
127.98973,12.46,-0.027,-19.196
128.000404,15.26,2.191,-18.876
128.011078,16.52,2.751,-18.422
128.021752,16.17,2.621,-18.09
128.032426,13.79,2.366,-17.85
128.0431,10.29,2.593,-16.318
128.053774,5.74,3.36,-14.619
128.064448,-0.28,4.171,-13.978
128.075122,-6.02,4.998,-13.832
128.085796,-9.94,5.894,-12.466
128.09647,-11.9,5.83,-10.487
128.107144,-13.72,5.124,-7.697
128.117818,-15.26,3.665,-5.467
128.128492,-17.43,1.946,-3.78
128.139166,-17.99,0.604,-3.021
128.14984,-17.08,-0.446,-2.709
128.160514,-15.12,-2.097,-2.218
128.171188,-12.67,-4.019,-0.993
128.181862,-10.92,-6.585,1.469
128.192536,-9.31,-9.512,4.364
128.20321,-7.28,-12.492,7.962
128.213884,-5.11,-15.468,11.133
128.224558,-4.13,-16.437,13.805
128.235232,-4.83,-16.98,14.065
128.245919,-7.56,-17.017,13.063
128.256606,-10.43,-15.955,11.474
128.267293,-11.69,-14.483,10.383
128.27798,-10.85,-13.494,9.207
128.288667,-8.96,-12.472,8.25
128.299354,-8.12,-11.28,7.536
128.310041,-7.21,-10.363,7.982
128.320728,-4.97,-10.006,9.182
128.331415,-2.38,-10.562,10.719
128.342102,-0.14,-10.663,12.904
128.352789,0.63,-10.484,14.713
128.363476,-0.84,-9.697,15.491
128.374162,-4.69,-8.956,12.495
128.384848,-9.31,-9.718,10.37
128.395534,-14.7,-12.013,12.098
128.40622,-15.47,-15.066,14.9
128.416906,-16.94,-17.066,12.131
128.427592,-21.07,-18.534,7.963
128.438278,-20.02,-19.103,3.526
128.448964,-14.42,-19.286,-1.481
128.45965,-9.73,-21.338,-5.966
128.470336,-4.97,-24.566,-6.606
128.481022,1.61,-27.842,-4.554
128.491708,5.67,-32.294,-3.491
128.502394,5.67,-36.187,-1.974
128.51308,3.78,-39.037,0.082
128.523766,4.62,-41.644,3.177
128.53443,7.84,-42.102,6.579
128.545094,12.18,-42.625,7.127
128.555758,19.04,-41.981,4.681
128.566422,24.22,-40.229,2.005
128.577086,27.37,-38.685,-0.708
128.58775,28.7,-38.527,-1.604
128.598414,28.84,-40.015,-0.019
128.609078,29.4,-43.421,2.366
128.619742,31.15,-48.055,4.463
128.630406,33.46,-53.237,7.246
128.64107,37.38,-57.957,9.825
128.651739,41.44,-61.436,10.207
128.662408,45.64,-64.368,9.903
128.673077,49.28,-67.721,9.17
128.683746,52.29,-70.284,8.789
128.694415,53.34,-71.711,8.821
128.705084,53.41,-70.669,6.944
128.715753,53.55,-68.03,4.069
128.726422,52.57,-64.219,1.4
128.737091,52.01,-61.429,-0.312
128.74776,52.92,-59.86,-0.746
128.758429,56.63,-59.089,0.527
128.769098,59.15,-57.609,2.21
128.779774,60.13,-54.053,2.197
128.79045,59.01,-49.544,2.424
128.801126,58.59,-44.637,3.218
128.811802,58.59,-39.613,3.748
128.822478,58.94,-35.554,4.109
128.833154,59.15,-31.584,4.169
128.84383,57.12,-27.643,2.376
128.854506,54.95,-24.018,-0.041
128.865182,53.41,-20.737,-1.311
128.875858,52.71,-17.12,-1.668
128.886534,50.19,-13.739,-1.498
128.89721,47.11,-10.6,0.05
128.907913,40.11,-7.043,2.454
128.918616,27.09,-3.491,2.867
128.929319,12.39,-1.07,1.233
128.940022,2.03,1.529,1.407
128.950725,-6.72,5.523,2.538
128.961428,-15.4,9.266,2.274
128.972131,-21.98,11.411,0.59
128.982834,-22.47,11.958,-0.095
128.993537,-15.96,10.612,-0.119
129.00424,-7,10.06,-1.425
129.014943,-1.4,9.865,-5.155
129.025646,1.75,9.029,-10.492
129.036337,1.05,7.642,-13.508
129.047028,-0.7,5.703,-14.205
129.057719,-3.5,3.996,-15.004
129.06841,-5.25,2.78,-15.361
129.079101,-6.16,1.855,-14.955
129.089792,-6.51,1.219,-12.153
129.100483,-5.74,0.258,-7.915
129.111174,-5.11,-0.873,-5.129
129.121865,-5.39,-1.363,-4.363
129.132556,-8.12,-1.189,-4.545
129.143247,-12.11,-0.658,-5.945
129.153938,-16.59,0.611,-8.706
129.164629,-21.63,2.001,-12.157
129.175342,-27.58,3.688,-15.272
129.186055,-32.9,5.658,-19.189
129.196768,-37.73,6.059,-21.464
129.207481,-41.09,6.55,-22.23
129.218194,-44.24,6.436,-22.393
129.228907,-46.62,5.885,-21.281
129.23962,-48.09,5.098,-19.643
129.250333,-48.09,4.665,-17.587
129.261046,-47.46,5.083,-16.732
129.271759,-46.62,5.375,-15.969
129.282472,-45.01,5.711,-15.057
129.293185,-43.68,6.097,-14.42
129.303897,-41.37,5.943,-13.95
129.314609,-39.76,5.221,-13.082
129.325321,-38.71,3.948,-11.103
129.336033,-39.06,1.597,-8.248
129.346745,-39.34,-0.771,-6.107
129.357457,-40.6,-3.172,-4.184
129.368169,-42.28,-6.362,-1.406
129.378881,-44.17,-8.357,-0.976
129.389593,-47.6,-8.958,-3.214
129.400305,-50.96,-8.553,-5.915
129.411017,-52.71,-7.105,-8.077
129.421729,-53.9,-5.135,-9.577
129.432441,-55.79,-2.779,-11.65
129.44316,-57.75,-0.659,-13.195
129.453879,-58.38,0.789,-14.148
129.464598,-56.56,1.227,-15.421
129.475317,-57.75,3.104,-18.005
129.486036,-64.12,6.331,-22.198
129.496755,-70.42,10.041,-26.306
129.507474,-75.39,13.811,-28.342
129.518193,-78.68,18.783,-28.319
129.528912,-81.97,22.745,-27.407
129.539631,-80.64,22.494,-23.968
129.55035,-71.61,19.34,-17.772
129.561069,-67.34,19.6,-14.812
129.571769,-65.1,22.616,-18.616
129.582469,-63.07,26.233,-17.765
129.593169,-61.11,27.109,-16.686
129.603869,-58.87,25.2,-15.53
129.614569,-53.62,20.877,-12.383
129.625269,-45.78,15.319,-7.463
129.635969,-37.03,8.657,-1.53
129.646669,-30.24,2.138,4.002
129.657369,-24.99,-2.452,7.457
129.668069,-22.4,-6.158,8.723
129.678769,-22.47,-8.737,10.045
129.689469,-24.43,-9.848,10.702
129.700169,-26.46,-9.832,10.208
129.710892,-29.4,-8.478,9.38
129.721615,-34.51,-6.308,8.768
129.732338,-39.69,-3.997,7.754
129.743061,-43.82,-2.485,7.239
129.753784,-46.48,-1.345,7.226
129.764507,-48.44,-0.214,6.857
129.77523,-49.84,0.905,6.557
129.785953,-49.56,2.292,5.948
129.796676,-48.65,4.352,4.748
129.807399,-46.62,6.302,4.168
129.818122,-44.17,9.015,3.295
129.828845,-42,11.431,2.087
129.839591,-40.67,13.507,1.6
129.850337,-40.18,15.052,0.095
129.861083,-41.44,16.418,-2.01
129.871829,-42.21,18.227,-3.397
129.882575,-41.37,19.942,-4.658
129.893321,-39.2,20.489,-6.552
129.904067,-36.89,20.493,-6.977
129.914813,-32.41,19.881,-5.522
129.925559,-27.09,18.847,-3.287
129.936305,-22.96,17.388,-1.057
129.947051,-19.46,15.429,1.583
129.957797,-16.31,13.431,4.856
129.968542,-13.93,11.16,7.654
129.979287,-11.83,8.12,10.388
129.990032,-8.19,5.537,14.553
130.000777,-6.44,2.691,19.808
130.011522,-5.95,0.831,25.522
130.022267,-7.07,0.187,31.592
130.033012,-7.91,1.055,34.731
130.043757,-13.09,3.135,33.818
130.054502,-20.86,6.671,31.101
130.065247,-24.15,8.576,30.371
130.075992,-21.98,9.789,33.57
130.086737,-18.83,10.958,36.619
130.097482,-19.04,12.892,38.95
130.108242,-16.1,16.842,42.348
130.119002,-9.73,20.962,41.155
130.129762,-7.91,23.71,31.618
130.140522,-10.64,24.191,22.036
130.151282,-8.75,24.427,25.133
130.162042,-4.41,24.735,26.609
130.172802,-0.77,25.493,23.118
130.183562,-0.84,26.883,18.459
130.194322,-4.06,27.491,12.595
130.205082,-8.12,28.414,6.147
130.215842,-11.62,28.73,0.73
130.226602,-13.65,28.348,-2.749
130.237327,-14.49,27.164,-4.095
130.248052,-12.04,25.229,-5.218
130.258777,-7.84,22.967,-5.688
130.269502,-3.36,20.623,-4.893
130.280227,1.96,18.551,-3.624
130.290952,6.58,16.637,-2.042
130.301677,9.94,15.388,-1.409
130.312402,11.83,14.269,-1.109
130.323127,11.41,14.89,-1
130.333852,8.33,16.435,-0.087
130.344577,4.69,17.437,1.084
130.355302,-0.56,18.528,2.556
130.366027,-5.74,20.146,4.263
130.376752,-9.52,21.817,5.268
130.387433,-12.67,23.787,6.185
130.398114,-14,24.736,6.849
130.408795,-14.56,24.724,6.918
130.419476,-12.81,23.986,7.073
130.430157,-9.38,22.794,7.786
130.440838,-5.11,20.893,9.299
130.451519,0.14,18.971,10.524
130.4622,4.62,18.014,10.711
130.472881,7.14,16.655,9.547
130.483562,7.77,14.972,7.402
130.494243,7,13.853,5.286
130.504924,4.69,13.966,3.031
130.515605,0.77,13.973,-0.237
130.526286,-4.48,13.438,-3.246
130.536967,-10.85,14.244,-5.805
130.547648,-15.68,15.063,-8.432
130.558329,-17.92,15.987,-11.255
130.56901,-19.39,16.591,-13.067
130.579691,-20.37,16.563,-12.504
130.590372,-19.53,17.009,-11.004
130.601053,-18.9,17.573,-9.767
130.611734,-19.46,17.415,-8.871
130.622415,-20.3,15.895,-7.504
130.633096,-21.21,14.792,-5.282
130.643774,-21.7,12.493,-3.128
130.654452,-21.35,9.278,0.996
130.66513,-20.93,7.263,4.764
130.675808,-19.81,6.412,7.172
130.686486,-19.81,6.497,7.898
130.697164,-19.04,7.146,8.652
130.707842,-13.79,8.711,7.436
130.71852,-10.36,9.651,1.702
130.729198,-10.92,7.513,-3.509
130.739876,-8.82,4.817,-1.923
130.750554,-3.15,2.652,0.681
130.761232,0.42,0.694,0.904
130.771895,1.89,-1.549,-0.486
130.782558,1.75,-4.818,-1.702
130.793221,2.03,-8.232,-0.883
130.803884,2.45,-11.419,0.261
130.814547,3.01,-14.14,0.776
130.82521,3.08,-15.964,0.241
130.835873,2.31,-18.012,-1.044
130.846536,1.54,-20.458,-2.896
130.857199,0.98,-24.837,-4.664
130.867862,0.07,-30.288,-6.407
130.878525,-1.75,-37.96,-8.044
130.889188,-4.34,-45.474,-10.577
130.899851,-8.12,-52.019,-13.366
130.910485,-11.9,-57.011,-14.886
130.921119,-14.21,-60.868,-17.201
130.931753,-15.05,-64.303,-19.086
130.942387,-16.45,-67.011,-19.848
130.953021,-17.85,-68.877,-20.959
130.963655,-19.67,-70.962,-23.245
130.974289,-21.98,-73.022,-24.462
130.984923,-25.69,-74.36,-26.546
130.995557,-29.26,-75.058,-29.441
131.006191,-32.76,-74.109,-31.193
131.016825,-35.28,-72.475,-32.397
131.027459,-37.38,-72.078,-31.83
131.038093,-39.27,-71.794,-30.216
131.048715,-40.6,-72.698,-28.314
131.059337,-41.51,-73.727,-26.505
131.069959,-41.65,-72.977,-25.52
131.080581,-41.02,-71.98,-25.131
131.091203,-39.76,-69.352,-25.521
131.101825,-37.87,-65.074,-26.401
131.112447,-35.63,-60.338,-28.267
131.123069,-32.48,-55.614,-28.856
131.133691,-27.23,-52.293,-28.341
131.144313,-23.52,-50.456,-26.667
131.154935,-21.49,-49.138,-23.662
131.165557,-16.59,-48.148,-21.213
131.176196,-17.29,-45.614,-22.685
131.186835,-25.62,-41.835,-26.781
131.197474,-31.36,-38.101,-31.028
131.208113,-33.32,-35.469,-29.426
131.218752,-32.76,-33.923,-23.68
131.229391,-30.66,-33.89,-15.003
131.24003,-27.93,-34.736,-4.561
131.250669,-22.33,-35.509,4.259
131.261308,-13.72,-35.926,10.653
131.271947,-4.41,-34.51,16.732
131.282586,6.79,-31.898,19.253
131.293225,17.71,-28.764,13.978
131.303859,25.76,-24.767,5.015
131.314493,28.35,-20.62,-5.2
131.325127,26.25,-17.033,-12.244
131.335761,21.42,-14.499,-14.924
131.346395,15.05,-13.124,-15.464
131.357029,8.19,-11.9,-17.167
131.367663,3.36,-11.418,-19.499
131.378297,-0.07,-10.647,-19.434
131.388931,-0.42,-9.653,-16.202
131.399565,0.56,-8.485,-13.153
131.410199,1.12,-7.872,-10.984
131.420833,0.21,-7.313,-10.53
131.431467,-1.75,-6.461,-11.73
131.442105,-4.2,-4.965,-14.167
131.452743,-5.46,-3.206,-16.487
131.463381,-4.69,-1.726,-17.221
131.474019,-1.54,-0.371,-16.84
131.484657,1.89,0.675,-15.519
131.495295,4.06,0.947,-13.836
131.505933,5.39,0.809,-11.443
131.516571,5.81,0.1,-9.436
131.527209,4.62,-1.854,-8.43
131.537847,0.98,-5.354,-7.128
131.548485,-4.62,-9.595,-5.246
131.559123,-9.31,-13.532,-2.67
131.569761,-12.32,-16.403,-0.902
131.580425,-13.79,-18.787,0.526
131.591089,-14.14,-20.765,1.669
131.601753,-12.39,-22.865,4.711
131.612417,-10.5,-23.193,8.989
131.623081,-15.4,-21.081,7.087
131.633745,-16.66,-18.437,7.411
131.644409,-14.63,-12.606,7.8
131.655073,-12.6,-5.685,2.409
131.665737,-9.38,1.102,-3.431
131.676401,-1.47,8.66,-7.998
131.687065,6.37,16.624,-12.849
131.697729,12.81,24.457,-16.158
131.70839,21.49,31.148,-16.614
131.719051,30.17,38.318,-12.933
131.729712,39.13,45.541,-6.328
131.740373,44.87,54.341,1.408
131.751034,45.15,65.125,12.407
131.761695,40.95,76.724,23.622
131.772356,32.69,89.113,31.564
131.783017,22.12,101.757,39.267
131.793678,11.2,113.96,46.252
131.804339,1.19,124.698,51.059
131.815,-7.21,133.385,56.216
131.825661,-13.72,139.971,63.206
131.836322,-17.22,145.264,70.679
131.846994,-19.67,149.632,76.14
131.857666,-21.49,152.418,78.479
131.868338,-23.66,153.48,80.515
131.87901,-26.32,154.166,82.271
131.889682,-28.21,153.428,83.633
131.900354,-28.63,150.581,81.638
131.911026,-28.7,145.609,77.99
131.921698,-28.77,139.052,74.061
131.93237,-28.49,131.144,69.326
131.943042,-28,121.399,64.125
131.953714,-26.11,110.677,58.823
131.964386,-23.31,99.095,54.364
131.975091,-20.44,85.867,49.97
131.985796,-15.82,73.572,46.736
131.996501,-12.6,62.854,43.424
132.007206,-7.14,54.59,39.906
132.017911,-2.31,48.267,35.45
132.028616,1.33,43.486,31.124
132.039321,3.15,39.301,27.045
132.050026,3.22,35.626,23.696
132.060731,2.52,33.497,21.26
132.071436,2.03,31.384,19.537
132.082141,2.31,29.961,19.143
132.092846,2.66,29.815,18.762
132.103552,1.89,30.756,19.07
132.114258,3.22,33.825,18.19
132.124964,2.17,36.517,13.405
132.13567,-0.77,38.195,8.725
132.146376,-0.98,39.862,7.739
132.157082,-0.14,39.574,7.76
132.167788,-0.49,37.08,11.016
132.178494,-0.49,33.691,17.74
132.1892,0.35,31.677,25.132
132.199906,1.75,32.031,30.384
132.210612,4.9,34.058,31.381
132.221318,7.28,35.984,28.522
132.232024,10.43,36.884,24.629
132.242746,15.12,36.899,21.717
132.253468,19.32,37.357,18.315
132.26419,22.12,38.5,14.252
132.274912,22.96,39.894,9.167
132.285634,23.73,42.367,3.206
132.296356,24.57,45.229,-2.545
132.307078,24.57,46.55,-7.216
132.3178,24.08,45.974,-9.592
132.328522,24.43,44.174,-9.057
132.339244,24.99,41.344,-5.504
132.349966,24.57,38.283,-0.642
132.360688,23.17,35.733,3.742
132.371446,21.63,33.653,7.071
132.382204,18.76,32.445,9.488
132.392962,15.61,31.472,11.378
132.40372,11.69,30.893,11.844
132.414478,8.05,30.637,10.875
132.425236,5.53,29.412,8.953
132.435994,3.64,27.514,7.624
132.446752,3.08,25.62,7.076
132.45751,2.59,24.055,5.876
132.468268,0.49,22.51,3.756
132.479026,-1.61,21.56,0.674
132.489784,-3.5,21.414,-3.332
132.500553,-5.39,21.369,-7.107
132.511322,-6.09,19.953,-9.56
132.522091,-6.16,16.92,-8.887
132.53286,-4.69,13.263,-5.48
132.543629,-1.68,9.675,-2.061
132.554398,0.49,7.429,-0.609
132.565167,0,6.905,-1.27
132.575936,-1.33,7.659,-3.127
132.586705,-3.71,9.37,-6.38
132.597474,-6.86,11.036,-9.782
132.608243,-9.38,11.429,-12.414
132.619012,-10.78,10.788,-14.02
132.629781,-11.97,9.268,-15.07
132.640567,-12.67,7.552,-15.017
132.651353,-13.3,5.59,-15.576
132.662139,-19.18,2.593,-16.318
132.672925,-23.38,0.886,-12.283
132.683711,-22.12,1.365,-10.563
132.694497,-19.46,2.074,-14.988
132.705283,-15.54,2.548,-17.676
132.716069,-10.08,1.709,-17.753
132.726855,-3.22,-0.562,-16.163
132.737641,4.97,-3.238,-11.873
132.748427,10.15,-5.791,-5.855
132.759213,11.41,-7.66,-4.123
132.770002,9.52,-7.989,-5.887
132.780791,5.11,-8.147,-6.199
132.79158,-0.14,-8.532,-5.627
132.802369,-3.01,-9.023,-4.861
132.813158,-4.48,-8.289,-3.381
132.823947,-4.2,-7.522,-2.89
132.834736,-2.52,-6.387,-2.477
132.845525,0.42,-5.073,-1.463
132.856314,4.06,-4.55,-0.802
132.867103,6.23,-5.251,0.354
132.877892,7.63,-5.648,2.203
132.888681,7.77,-6.272,4.936
132.89947,6.93,-7.399,7.296
132.910266,6.79,-9.001,9.928
132.921062,6.86,-10.416,12.308
132.931858,6.3,-10.878,13.72
132.942654,6.37,-10.233,13.691
132.95345,6.16,-9.491,13.111
132.964246,6.44,-7.861,11.124
132.975042,6.16,-5.887,9.198
132.985838,5.46,-4.609,8.001
132.996634,4.34,-2.46,7.101
133.00743,1.47,-0.749,6.265
133.018226,-0.07,1.31,5.065
133.029022,-2.03,2.981,3.653
133.039818,-3.36,5.714,3.069
133.050614,-4.41,8.897,2.351
133.06141,-4.55,12.283,0.886
133.072206,-5.74,15.888,0.598
133.083002,-7.42,19.565,-0.104
133.093798,-10.5,21.97,-0.035
133.104594,-14.49,23.507,0.52
133.11539,-18.55,24.261,2.288
133.126186,-21.84,24.951,4.826
133.136982,-23.24,26.139,5.746
133.147778,-23.94,27.323,4.676
133.158574,-23.03,28.88,3.102
133.16937,-20.79,29.857,1.995
133.180129,-18.48,29.946,2.295
133.190888,-15.12,28.844,4.517
133.201647,-11.34,27.449,7.186
133.212406,-7.84,26.249,9.959
133.223165,-4.55,25.451,11.667
133.233924,-3.01,25.905,12.315
133.244683,-3.71,28.054,13.832
133.255442,-3.22,32.369,11.536
133.266201,-5.67,34.204,1.127
133.27696,-9.73,32.561,-2.859
133.287719,-8.89,30.129,6.095
133.298478,-3.15,27.478,12.664
133.309237,1.4,24.904,13.56
133.319963,4.48,22.422,13.123
133.330689,7.84,22.296,11.821
133.341415,11.13,24.21,9.031
133.352141,14.35,26.261,5.057
133.362867,16.1,28.446,1.533
133.373593,16.94,30.311,-0.981
133.384319,18.48,33.121,0.012
133.395045,18.41,36.13,0.684
133.405771,16.45,38.798,-0.338
133.416497,13.79,40.919,-1.883
133.427223,11.27,41.965,-2.978
133.437949,7.91,42.346,-3.124
133.448658,4.2,42.265,-3.067
133.459367,-0.35,41.709,-2.739
133.470076,-4.06,40.497,-1.105
133.480785,-5.39,39.342,0.611
133.491494,-4.62,37.837,2.691
133.502203,-2.66,36.856,4.224
133.512912,-0.98,36.005,5.425
133.523621,0.77,35.267,5.579
133.53433,0.98,34.257,5.259
133.545039,1.26,32.181,5.745
133.555748,0.56,29.274,6.512
133.566457,0.7,26.071,8.151
133.577116,0.63,23.131,9.907
133.587775,0.14,21.148,10.268
133.598434,-0.49,19.551,10.058
133.609093,-2.38,18.338,9.275
133.619752,-4.62,17.511,7.921
133.630411,-7.28,15.937,6.364
133.64107,-9.94,13.751,6.263
133.651729,-12.18,11.562,6.588
133.662388,-13.93,8.983,7.91
133.673047,-15.47,6.1,9.747
133.683706,-16.38,3.197,12.505
133.694365,-16.1,0.229,16.033
133.705024,-15.19,-1.258,18.827
133.715668,-13.79,-1.603,19.975
133.726312,-10.99,-0.188,18.803
133.736956,-7.84,2.824,15.425
133.7476,-6.44,6.842,10.376
133.758244,-6.37,11.14,4.95
133.768888,-7.84,14.955,0.647
133.779532,-10.29,17.667,-1.434
133.790176,-13.23,19.646,-2.578
133.80082,-16.03,21.029,-2.76
133.811464,-18.69,22.781,-1.812
133.822108,-19.88,23.417,-0.989
133.832752,-19.88,23.937,0.098
133.84336,-18.62,25.129,0.593
133.853968,-16.38,26.662,0.365
133.864576,-13.65,27.951,-0.9
133.875184,-11.2,28.652,-2.056
133.885792,-10.01,28.652,-3.264
133.8964,-9.8,27.379,-3.702
133.907008,-10.36,24.358,-3.097
133.917616,-11.69,20.202,-1.698
133.928224,-13.51,15.705,-0.785
133.938832,-17.85,11.597,1.547
133.94944,-20.09,8.909,4.698
133.960048,-21.77,7.652,4.974
133.970656,-23.03,7.49,3.88
133.981265,-23.87,7.754,3.997
133.991874,-21.07,8.184,4.784
134.002483,-15.96,8.849,6.252
134.013092,-11.06,9.003,6.99
134.023701,-5.39,8.792,8.587
134.03431,0,8.018,10.157
134.044919,3.64,6.919,10.745
134.055528,5.67,5.65,11.09
134.066137,6.72,5.451,11.41
134.076746,6.51,4.519,11.459
134.087355,4.97,4.174,10.19
134.097964,1.05,4.579,7.489
134.108547,-2.66,5.524,4.954
134.11913,-4.62,6.772,3.113
134.129713,-5.88,7.153,1.759
134.140296,-5.53,7.08,0.964
134.150879,-5.11,5.775,1.516
134.161462,-3.85,4.38,2.976
134.172045,-1.75,2.997,4.367
134.182628,-0.07,1.988,6.463
134.193211,0.49,0.873,7.546
134.203794,0.91,-0.206,8.422
134.214377,-0.35,-1.248,7.883
134.22496,-1.96,-1.881,6.634
134.235543,-2.66,-2.408,6.399
134.24613,-2.8,-2.89,5.106
134.256717,-1.54,-2.761,4.773
134.267304,-2.24,-2.761,4.773
134.277891,-3.5,-3.361,3.743
134.288478,-2.73,-3.969,3.565
134.299065,-1.05,-3.458,4.295
134.309652,0.84,-2.177,3.881
134.320239,1.61,-1.232,2.555
134.330826,2.52,-0.243,1.379
134.341413,1.4,0.434,1.569
134.352,-0.91,0.021,2.705
134.362587,-5.67,-0.859,3.26
134.373175,-10.85,-1.139,4.846
134.383763,-14.42,-0.761,6.334
134.394351,-15.96,0.317,6.666
134.404939,-15.82,1.623,6.115
134.415527,-15.05,3.525,5.81
134.426115,-13.3,5.207,5.538
134.436703,-10.01,7,5.854
134.447291,-6.16,7.929,7.44
134.457879,-4.41,8.428,9.447
134.468467,-5.18,8.124,9.962
134.479055,-6.16,7.475,9.208
134.489643,-6.16,6.627,8.774
134.500231,-6.3,5.597,9.374
134.510851,-7.21,4.474,8.892
134.521471,-7,4.007,8.312
134.532091,-5.18,3.76,8.908
134.542711,-3.01,3.059,10.064
134.553331,-1.82,2.463,11.025
134.563951,-3.64,1.368,11.188
134.574571,-7.91,0.006,11.658
134.585191,-12.88,-0.854,11.293
134.595811,-17.22,-1.244,9.874
134.606431,-18.9,-0.98,7.575
134.617051,-20.58,-0.936,5.308
134.627715,-20.37,-1.009,5.722
134.638379,-18.62,-1.013,6.148
134.649043,-17.22,-0.968,6.298
134.659707,-15.89,-0.632,6.001
134.670371,-15.68,-0.944,4.951
134.681035,-15.61,-0.673,4.217
134.691699,-15.47,0.114,3.787
134.702363,-15.96,0.763,2.125
134.713027,-15.68,1.127,0.057
134.723691,-15.26,1.581,-1.711
134.734355,-14.63,1.313,-2.612
134.745019,-14,0.555,-2.745
134.755742,-15.05,-0.021,-2.705
134.766465,-16.66,-0.645,-3.597
134.777188,-19.46,-1.416,-6.078
134.787911,-21.35,-1.818,-8.637
134.798634,-21.21,-1.782,-11.26
134.809357,-20.72,-1.571,-14.067
134.82008,-19.18,-1.174,-17.124
134.830803,-17.99,-1.386,-21.568
134.841526,-17.78,-1.597,-26.013
134.852249,-16.31,-0.908,-29.516
134.862972,-13.72,0.283,-32.647
134.873695,-10.78,2.104,-35.311
134.884476,-8.19,3.235,-38.097
134.895257,-6.23,4.021,-39.735
134.906038,-3.08,4.573,-38.43
134.916819,-0.7,3.628,-35.895
134.9276,0,1.208,-30.636
134.938381,-1.47,-1.532,-24.366
134.949162,-4.34,-2.72,-19.245
134.959943,-6.65,-1.105,-15.904
134.970724,-9.03,1.369,-14.614
134.981505,-9.66,3.542,-13.236
134.992286,-10.64,6.089,-13.569
135.003067,-12.39,7.297,-13.569
135.013934,-13.09,8.047,-12.584
135.024801,-12.46,8.81,-11.667
135.035668,-11.2,9.524,-10.475
135.046535,-10.08,10.988,-9.506
135.057402,-9.31,11.815,-9.361
135.068269,-8.61,13.084,-8.497
135.079136,-8.47,14.135,-7.601
135.090003,-8.47,14.694,-7.147
135.10087,-8.54,15.035,-6.66
135.111737,-8.33,15.141,-5.647
135.122604,-9.73,14.545,-4.686
135.133471,-10.15,14.33,-3.87
135.144408,-9.8,14.549,-3.903
135.155345,-8.96,14.719,-3.66
135.166282,-8.4,15.368,-2.906
135.177219,-8.4,15.599,-1.799
135.188156,-8.89,15.664,-1.361
135.199093,-9.31,15.474,-0.683
135.21003,-9.66,15.385,0.225
135.220967,-9.31,15.462,1.802
135.231904,-8.47,16.411,3.676
135.242841,-7.42,18.183,4.912
135.253778,-6.86,20.6,6.12
135.264715,-7,23.938,7.348
135.275673,-8.61,26.817,8.354
135.286631,-10.64,29.274,8.929
135.297589,-11.97,31.622,7.708
135.308547,-13.79,34.229,7.031
135.319505,-16.03,36.488,9.135
135.330463,-15.75,38.646,12.216
135.341421,-15.26,40.848,13.031
135.352379,-16.38,42.231,14.057
135.363337,-17.78,42.215,16.968
135.374295,-18.41,41.133,20.687
135.385253,-16.73,39.199,23.189
135.396211,-15.26,37.062,24.021
135.407169,-12.74,34.597,24.297
135.418132,-9.59,31.397,24.301
135.429095,-6.65,28.384,24.054
135.440058,-3.71,24.792,24.274
135.451021,-1.89,20.911,24.514
135.461984,-1.33,17.193,24.64
135.472947,-1.33,14.143,24.6
135.48391,-2.24,11.341,23.963
135.494873,-3.71,9.545,22.865
135.505836,-5.39,7.845,22.423
135.516799,-5.6,7.035,22.991
135.527762,-5.11,6.544,22.549
135.538725,-4.69,6.686,22.147
135.549688,-3.64,6.702,22.861
135.560651,-1.75,6.727,23.932
135.571628,0.28,6.475,24.954
135.582605,1.75,6.459,25.448
135.593582,2.8,5.883,25.489
135.604559,3.64,4.318,25.497
135.615536,4.41,2.724,24.861
135.626513,4.83,1.163,24.443
135.63749,5.04,-0.581,23.852
135.648467,5.32,-1.453,22.347
135.659444,5.11,-1.858,20.214
135.670421,4.41,-1.94,17.854
135.681398,4.27,-1.012,14.606
135.692331,3.43,-0.663,11.824
135.703264,2.03,-0.522,10.215
135.714197,1.47,-0.538,8.293
135.72513,0.35,-0.165,6.581
135.736063,0.07,0.69,4.955
135.746996,-0.49,1.444,3.098
135.757929,-1.19,2.238,0.608
135.768862,-1.61,2.859,-1.699
135.779795,-1.96,4.014,-4.623
135.790728,-1.68,5.688,-7.669
135.801661,-1.05,7.301,-11.578
135.812594,0.14,9.061,-15.106
135.823527,1.89,11.007,-18.886
135.83444,2.17,12.811,-23.472
135.845353,2.8,14.675,-27.195
135.856266,3.29,15.19,-30.516
135.867179,3.64,15.117,-32.519
135.878092,3.5,14.172,-32.401
135.889005,3.71,12.773,-30.516
135.899918,4.13,10.993,-27.275
135.910831,4.69,9.076,-22.851
135.921744,5.67,6.413,-17.421
135.932657,5.74,4.507,-11.857
135.94357,4.34,2.647,-6.144
135.954483,2.24,0.742,-0.58
135.965358,-0.28,-0.673,4.217
135.976233,-2.03,-1.73,7.798
135.987108,-4.06,-2.594,10.276
135.997983,-4.62,-3.133,12.526
136.008858,-4.2,-3.27,13.71
136.019733,-2.94,-2.873,14.278
136.030608,-1.89,-2.492,15.34
136.041483,-1.12,-1.851,14.529
136.052358,-1.61,-1.057,13.248
136.063233,-2.94,-0.582,12.976
136.074108,-5.18,-0.785,13.722
136.084983,-8.05,-1.186,14.789
136.095782,-10.08,-1.595,16.707
136.106581,-11.69,-2.398,20.048
136.11738,-12.39,-2.945,23.15
136.128179,-13.72,-3.569,24.675
136.138978,-14.49,-4.015,24.383
136.149777,-14.56,-4.202,23.426
136.160576,-13.02,-4.38,21.618
136.171375,-10.71,-5.439,20.365
136.182174,-9.38,-6.647,21.573
136.192973,-7.63,-6.85,23.528
136.203772,-6.37,-6.022,23.674
136.214571,-6.58,-4.79,22.327
136.22537,-8.12,-3.48,20.142
136.236096,-10.78,-2.082,17.047
136.246822,-12.04,-0.622,14.817
136.257548,-12.04,1.458,12.696
136.268274,-11.13,3.46,10.206
136.279,-9.52,5.317,7.335
136.289726,-7.84,6.61,4.435
136.300452,-6.16,7.23,2.128
136.311178,-3.71,7.834,1.524
136.321904,-1.61,8.207,1.021
136.33263,0.28,9.245,0.777
136.343356,1.96,10.438,0.063
136.354082,2.59,11.694,-1.421
136.364752,3.08,12.55,-3.047
136.375422,3.01,13.559,-5.144
136.386092,2.73,14.694,-7.147
136.396762,1.96,15.331,-8.741
136.407432,0.28,15.399,-9.937
136.418102,0,14.674,-9.852
136.428772,0.63,13.295,-8.886
136.439442,-0.07,11.625,-7.475
136.450112,-0.35,9.565,-6.274
136.460782,-1.33,7.481,-4.936
136.471452,-2.87,5.291,-3.403
136.482122,-4.55,3.065,-1.663
136.492747,-5.74,0.791,0.353
136.503372,-5.74,-0.734,2.145
136.513997,-4.27,-1.419,2.806
136.524622,-3.22,-1.922,3.642
136.535247,-2.31,-2.716,4.923
136.545872,-1.05,-2.493,5.673
136.556497,-0.35,-2.018,6.61
136.567122,-0.28,-1.84,7.21
136.577747,-0.14,-2.006,7.749
136.588372,-1.26,-2.274,6.849
136.598997,-2.17,-3.527,6.699
136.609622,-3.64,-4.593,7.506
136.620247,-4.55,-5.416,8.143
136.630872,-5.39,-5.453,7.142
136.641497,-6.3,-4.971,4.81
136.652059,-6.44,-4.148,1.756
136.662621,-5.39,-3.362,-1.09
136.673183,-4.34,-2.312,-3.819
136.683745,-5.53,-2.134,-6.845
136.694307,-7.35,-2.381,-8.665
136.704869,-8.05,-2.313,-9.861
136.715431,-8.96,-1.993,-12.08
136.725993,-11.06,-2.533,-15.871
136.736555,-12.53,-2.974,-15.38
136.747117,-10.15,-3.521,-12.278
136.757679,-4.69,-3.404,-11.333
136.768215,-1.54,-3.051,-13.332
136.778751,1.26,-2.824,-14.216
136.789287,3.85,-2.893,-14.229
136.799823,6.23,-2.674,-14.261
136.810359,8.82,-2.216,-14.038
136.820895,10.08,-2.431,-12.015
136.831431,9.52,-3.801,-8.276
136.841967,8.26,-3.804,-3.016
136.852503,6.23,-4.067,1.7
136.863039,4.69,-4.415,4.481
136.873575,1.75,-4.382,7.117
136.884111,-0.21,-4.256,9.627
136.894605,-1.68,-4.045,11.655
136.905099,-3.01,-4.584,13.905
136.915593,-3.92,-4.308,15.162
136.926087,-5.67,-3.635,15.778
136.936581,-7.07,-3.343,15.332
136.947075,-7.14,-3.412,14.112
136.957569,-6.37,-4.146,13.84
136.968063,-5.81,-5.132,13.382
136.978557,-6.37,-5.55,12.527
136.989051,-7.63,-5.513,13.528
136.999545,-8.12,-5.756,16.115
137.010039,-9.17,-5.265,18.974
137.020533,-10.36,-4.847,22.246
137.030997,-9.94,-4.903,24.582
137.041461,-8.19,-4.826,26.159
137.051925,-5.39,-4.988,27.481
137.062389,-2.1,-4.971,29.403
137.072853,0.84,-4.947,29.266
137.083317,3.5,-5.361,27.984
137.093781,5.32,-5.393,26.557
137.104245,5.67,-5.499,25.543
137.114709,5.18,-5.065,24.696
137.125173,4.13,-4.611,24.136
137.135637,1.89,-4.238,23.633
137.146101,0.63,-3.298,20.316
137.156565,-0.77,-2.577,14.615
137.167019,-2.03,-2.797,9.813
137.177473,-3.22,-3.004,6.152
137.187927,-2.59,-3.791,2.957
137.198381,-0.98,-4.44,-0.214
137.208835,0.42,-5.219,-1.844
137.219289,2.31,-6.168,-2.509
137.229743,4.2,-6.797,-2.975
137.240197,5.32,-6.346,-3.109
137.250651,4.83,-5.681,-2.85
137.261105,2.8,-4.307,-3.389
137.271559,0.28,-0.962,-4.221
137.282013,-3.43,1.844,-6.427
137.292488,-7.77,3.762,-8.435
137.302963,-10.15,4.557,-8.508
137.313438,-11.34,4.472,-6.817
137.323913,-11.69,3.414,-4.445
137.334388,-10.5,2.867,-1.343
137.344863,-8.75,2.831,1.281
137.355338,-6.51,3.824,3.304
137.365813,-6.02,5.353,4.711
137.376288,-6.93,7.953,6.094
137.386763,-8.05,10.88,5.615
137.397238,-10.64,13.565,4.098
137.407713,-13.16,15.6,3.035
137.418249,-14.14,17.076,1.518
137.428785,-13.93,18.511,-0.574
137.439321,-13.3,19.577,-1.381
137.449857,-11.41,19.042,-0.765
137.460393,-10.01,16.833,1.689
137.470929,-8.96,15.312,5.472
137.481465,-7.14,14.218,8.051
137.492001,-6.3,14.705,8.919
137.502537,-8.47,14.607,7.054
137.513073,-11.34,14.291,5.221
137.523609,-11.06,14.092,5.541
137.534145,-8.75,13.885,6.713
137.544722,-4.55,14.347,5.302
137.555299,-1.82,15.827,0.943
137.565876,0.42,18.482,-4.844
137.576453,2.52,21.729,-11.166
137.58703,4.34,24.599,-16.56
137.597607,4.69,27.393,-19.906
137.608184,3.78,29.818,-20.758
137.618761,1.89,30.924,-20.989
137.629338,0.28,32.283,-21.034
137.639915,-0.63,33.751,-20.491
137.650492,-1.05,35.949,-20.458
137.661069,-1.75,39.095,-22.178
137.671646,-4.06,43.239,-27.134
137.682287,-7.56,50.581,-35.719
137.692928,-15.12,59.967,-48.636
137.703569,-21.7,67.831,-61.394
137.71421,-24.99,71.824,-71.139
137.724851,-24.64,73.296,-73.438
137.735492,-22.75,73.171,-71.114
137.746133,-20.51,71.577,-66.917
137.756774,-17.85,68.557,-60.271
137.767415,-14.49,61.966,-49.492
137.778056,-10.99,52.588,-35.01
137.788697,-8.26,43.151,-18.975
137.799338,-6.02,34.694,-4.473
137.81004,-2.31,28.159,6.387
137.820742,1.54,23.829,14.011
137.831444,5.6,21.429,20.767
137.842146,8.75,19.934,24.412
137.852848,7.77,18.896,25.864
137.86355,4.13,17.367,26.874
137.874252,-1.68,14.674,23.201
137.884954,-5.39,11.945,20.942
137.895656,-5.74,10.911,21.968
137.906358,-4.55,11.231,22.167
137.91706,-4.2,10.664,21.356
137.927762,-5.11,9.857,21.498
137.938464,-5.88,9.171,20.951
137.949231,-6.09,10.176,18.072
137.959998,-5.39,9.178,11.641
137.970765,-5.67,4.681,8.928
137.981532,-3.36,0.675,11.492
137.992299,2.31,-0.08,10.932
138.003066,4.34,-1.037,6.285
138.013833,5.32,-1.974,3.135
138.0246,7.28,-3.085,2.583
138.035367,10.5,-3.381,3.455
138.046134,13.58,-2.724,4.566
138.056901,13.51,-2.229,5.791
138.067668,9.73,-2.477,6.387
138.078448,6.23,-2.043,7.956
138.089228,3.22,-1.585,6.971
138.100008,-0.91,-0.762,5.126
138.110788,-4.9,-0.915,6.804
138.121568,-9.59,-0.51,8.937
138.132348,-12.04,0.33,9.014
138.143128,-12.81,-0.266,9.975
138.153908,-13.3,-1.389,13.118
138.164688,-12.74,-1.64,14.14
138.175468,-10.85,-2.09,14.274
138.186248,-8.12,-2.151,17.035
138.197028,-5.46,-2.544,19.667
138.207808,-3.08,-3.119,22.124
138.218599,-2.73,-3.22,25.519
138.22939,-0.07,-3.248,27.291
138.240181,2.73,-3.654,27.574
138.250972,6.58,-3.285,28.706
138.261763,8.96,-2.863,29.136
138.272554,8.96,-2.774,28.227
138.283345,8.96,-2.807,25.591
138.294136,8.68,-1.886,24.403
138.304927,7.77,-0.516,23.081
138.315718,5.74,2.115,18.64
138.326509,4.06,4.106,15.011
138.3373,2.73,7.516,13.409
138.348091,2.45,10.103,12.443
138.358896,2.31,11.392,12.386
138.369701,1.89,12.653,12.893
138.380506,2.31,13.168,13.197
138.391311,3.57,13.631,12.994
138.402116,6.23,13.874,11.616
138.412921,8.75,13.768,11.81
138.423726,8.19,14.701,11.761
138.434531,5.46,14.741,9.921
138.445336,1.4,16.185,9.393
138.456141,-3.22,17.709,8.809
138.466946,-8.47,19.039,8.119
138.477751,-11.34,20.13,7.175
138.488587,-11.97,20.596,7.754
138.499423,-11.41,20.223,8.257
138.510259,-10.99,18.695,10.475
138.521095,-10.29,17.495,12.041
138.531931,-10.22,16.619,12.171
138.542767,-8.19,15.642,13.278
138.553603,-7.07,14.766,14.616
138.564439,-6.65,14.523,14.787
138.575275,-4.69,14.442,13.635
138.586111,-3.71,12.15,12.52
138.596947,3.01,9.191,16.405
138.607783,11.2,6.073,21.186
138.618611,16.73,1.974,22.667
138.629439,19.6,-1.765,23.714
138.640267,19.6,-4.579,21.938
138.651095,16.38,-6.181,19.737
138.661923,10.92,-6.339,18.216
138.672751,5.04,-5.375,17.178
138.683579,-0.77,-4.823,16.067
138.694407,-5.04,-4.815,16.423
138.705235,-7.28,-3.679,19.254
138.716063,-9.38,-1.295,19.034
138.726891,-12.53,1.162,15.985
138.737719,-13.79,4.499,14.796
138.748547,-11.83,8.858,13.859
138.759387,-6.3,13.849,11.753
138.770227,-0.56,19.554,8.424
138.781067,4.2,24.205,5.832
138.791907,8.12,27.87,2.782
138.802747,11.76,30.79,0.738
138.813587,15.12,33.032,-0.288
138.824427,16.52,35.153,-0.625
138.835267,15.68,37.464,0.777
138.846107,15.89,40.611,1.474
138.856947,14.7,43.608,2.216
138.867787,14.35,46.142,3.161
138.878627,14.49,48.486,3.574
138.889454,16.52,51.073,2.608
138.900281,17.36,53.842,1.817
138.911108,16.73,56.64,0.462
138.921935,15.12,58.193,-1.894
138.932762,13.3,58.534,-1.407
138.943589,12.11,57.743,-0.551
138.954416,9.59,56.506,0.012
138.965243,6.79,54.588,-0.397
138.97607,4.97,52.009,-2.7
138.986897,3.99,48.939,-3.028
138.997724,5.46,45.574,-1.276
139.008551,7.49,42.176,0.258
139.019378,10.22,39.467,0.704
139.030205,13.93,37.448,0.064
139.040987,18.13,37.075,-0.642
139.051769,22.82,38.599,-2.434
139.062551,24.85,39.15,-5.962
139.073333,23.87,37.649,-7.933
139.084115,20.23,33.915,-6.103
139.094897,14.49,27.89,-2.972
139.105679,5.67,20.052,-0.445
139.116461,-3.71,11.184,-0.942
139.127243,-9.38,2.335,-5.985
139.138025,-9.73,-5.399,-9.695
139.148807,-2.8,-11.416,-9.832
139.159589,9.03,-15.394,-11.457
139.170336,18.69,-18.46,-14.628
139.181083,24.43,-19.625,-18.103
139.19183,25.2,-18.725,-23.204
139.202577,20.65,-15.761,-25.098
139.213324,12.81,-11.754,-21.62
139.224071,4.76,-7.127,-20.448
139.234818,-3.01,-2.347,-20.956
139.245565,-8.4,1.688,-19.249
139.256312,-8.05,4.024,-15.568
139.267059,-4.97,6.004,-11.878
139.277806,-2.17,7.063,-3.375
139.288553,-2.38,7.672,2.846
139.299282,-3.92,7.766,6.345
139.310011,-3.08,8.76,11.993
139.32074,-1.12,9.941,17.39
139.331469,-0.49,10.072,21.891
139.342198,-1.26,9.594,26.214
139.352927,-2.66,9.347,29.227
139.363656,-2.59,10.426,30.768
139.374385,-2.45,11.971,30.472
139.385114,-2.31,14.03,29.271
139.395843,-1.96,15.648,27.353
139.406572,-0.56,17.023,26.813
139.417301,0.35,18.563,26.943
139.427982,-0.84,20.177,26.659
139.438663,-3.29,23.121,25.685
139.449344,-6.44,26.965,23.235
139.460025,-7.7,30.796,19.646
139.470706,-7.42,34.247,18.62
139.481387,-5.39,38.541,19.661
139.492068,-5.39,43.416,20.236
139.502749,-6.44,48.679,21.022
139.51343,-6.79,52.641,20.726
139.524111,-6.3,55.881,21.297
139.534792,-2.66,58.505,23.75
139.545473,-2.03,60.553,25.035
139.556154,-1.54,62.296,24.419
139.566806,-3.01,63.265,21.746
139.577458,-5.6,63.553,19.309
139.58811,-8.54,63.114,15.749
139.598762,-13.02,61.937,11.134
139.609414,-15.89,59.905,6.938
139.620066,-17.64,58.429,3.621
139.630718,-17.15,60.01,-1.716
139.64137,-15.33,61.172,-11.533
139.652022,-14.35,59.35,-18.536
139.662674,-8.82,55.58,-15.291
139.673326,-2.73,47.88,-9.114
139.683978,0,39.661,-4.024
139.694623,0.84,31.203,-1.606
139.705268,0.91,25.088,0.017
139.715913,0.35,20.79,1.818
139.726558,-0.91,17.98,3.241
139.737203,-2.45,15.839,3.29
139.747848,-3.36,14.16,3.137
139.758493,-4.34,12.052,3.405
139.769138,-4.69,10.053,4.26
139.779783,-4.97,7.75,4.423
139.790428,-5.11,4.798,5.04
139.801073,-4.9,2.11,6.982
139.811718,-3.92,0.431,9.245
139.822346,-2.31,0.099,10.324
139.832974,-1.12,0.451,9.533
139.843602,-0.77,1.85,7.647
139.85423,-2.31,2.835,6.897
139.864858,-4.41,4.194,6.852
139.875486,-6.09,5.848,7.144
139.886114,-6.16,6.72,7.44
139.896742,-6.3,6.801,7.383
139.90737,-6.3,5.544,7.659
139.917998,-5.46,2.6,8.633
139.928626,-3.43,-0.927,10.499
139.939254,-0.21,-3.461,11.971
139.949882,1.96,-5.181,12.45
139.960518,2.73,-6.559,12.206
139.971154,1.12,-7.541,11.323
139.98179,-1.47,-8.628,10.633
139.992426,-5.04,-10.489,9.097
140.003062,-7.28,-12.452,9.746
140.013698,-7.56,-13.919,10.411
140.024334,-7.84,-14.495,10.452
140.03497,-7.42,-14.094,9.385
140.045606,-7.7,-12.849,6.761
140.056242,-8.82,-11.86,4.377
140.066878,-9.87,-10.032,3.278
140.077514,-12.25,-9.18,0.869
140.088133,-14,-8.528,-1.219
140.098752,-14.7,-8.224,-2.943
140.109371,-15.4,-8.804,-6.102
140.11999,-17.43,-9.247,-9.236
140.130609,-18.41,-9.714,-13.441
140.141228,-19.18,-10.809,-18.112
140.151847,-19.67,-12.995,-21.838
140.162466,-18.83,-16.386,-24.782
140.173085,-18.55,-21.191,-26.553
140.183704,-19.46,-26.681,-26.455
140.194323,-21.07,-32.752,-25.891
140.204942,-21.21,-37.893,-24.949
140.215561,-19.74,-40.943,-27.406
140.226151,-21,-44.784,-31.424
140.236741,-22.19,-47.809,-32.81
140.247331,-19.6,-49.135,-33.755
140.257921,-16.52,-49.411,-37.429
140.268511,-13.79,-49.091,-39.647
140.279101,-11.41,-48.414,-40.665
140.289691,-8.26,-48.357,-39.375
140.300281,-3.78,-47.603,-37.607
140.310871,-0.28,-46.24,-36.87
140.321461,-0.56,-45.093,-37.734
140.332051,-3.08,-43.791,-36.651
140.342641,-4.06,-40.165,-33.026
140.353231,-3.92,-35.607,-29.45
140.363847,-3.57,-31.259,-25.485
140.374463,-3.99,-26.518,-20.527
140.385079,-3.57,-22.276,-16.367
140.395695,-3.36,-18.387,-13.833
140.406311,-2.8,-14.762,-11.417
140.416927,-3.01,-12.11,-9.528
140.427543,-2.73,-10.487,-7.038
140.438159,-3.01,-8.678,-3.592
140.448775,-4.2,-7.226,-0.137
140.459391,-5.39,-6.52,1.907
140.470007,-6.23,-6.167,3.533
140.480623,-7.77,-6.155,4.672
140.491233,-8.96,-6.236,5.937
140.501843,-10.43,-6.584,6.302
140.512453,-10.99,-6.897,6.461
140.523063,-12.25,-7.209,5.41
140.533673,-10.99,-6.066,3.764
140.544283,-9.1,-4.29,2.158
140.554893,-8.47,-2.238,-0.608
140.565503,-8.75,-0.532,-3.435
140.576113,-9.45,0.364,-5.693
140.586723,-10.57,0.011,-6.111
140.597333,-11.83,-1.095,-4.671
140.607943,-13.93,-1.845,-3.24
140.618553,-16.31,-1.582,-1.914
140.629166,-19.39,-0.88,-0.653
140.639779,-22.05,0.827,0.146
140.650392,-22.96,3.053,-0.386
140.661005,-23.1,4.598,-0.682
140.671618,-22.26,5.134,1.118
140.682231,-20.93,5.28,3.916
140.692844,-20.44,5.41,6.001
140.703457,-20.02,5.536,7.302
140.71407,-19.11,4.964,8.126
140.724683,-17.78,4.239,9.419
140.735296,-16.45,3.375,11.897
140.745909,-15.89,2.123,14.164
140.756566,-15.89,1.288,14.869
140.767223,-15.75,0.886,14.728
140.77788,-16.45,1.441,13.191
140.788537,-18.9,1.433,12.834
140.799194,-19.74,2.755,11.787
140.809851,-20.79,3.578,8.734
140.820508,-24.29,3.241,6.613
140.831165,-27.02,2.953,7.842
140.841822,-26.67,4.429,8.742
140.852479,-25.27,5.674,6.118
140.863136,-25.76,5.418,2.732
140.873793,-26.67,3.65,2.278
140.884443,-25.41,2.178,3.369
140.895093,-25.48,0.909,4.923
140.905743,-26.25,-1.046,4.72
140.916393,-27.72,-3.228,1.777
140.927043,-29.75,-6.152,-3.004
140.937693,-30.59,-7.767,-8.762
140.948343,-29.89,-9.057,-13.538
140.958993,-27.02,-9.203,-17.545
140.969643,-24.5,-8.219,-24.337
140.980293,-22.47,-6.939,-33.209
140.990943,-19.39,-5.229,-41.295
141.001593,-14.35,-3.611,-46.839
141.012243,-9.1,-2.132,-49.99
141.022926,-3.78,-2.302,-49.025
141.033609,1.68,-3.494,-45.894
141.044292,6.23,-5.2,-39.442
141.054975,9.24,-6.359,-32.467
141.065658,10.5,-6.853,-27.65
141.076341,10.5,-5.672,-24.67
141.087024,10.29,-2.943,-22.412
141.097707,10.01,0.585,-20.652
141.10839,9.8,3.979,-19.343
141.119073,9.31,7.653,-18.411
141.129756,9.17,11.344,-16.765
141.140439,8.12,14.215,-13.7
141.151142,7.42,17.342,-12.082
141.161845,5.53,19.284,-11.811
141.172548,3.99,21.486,-10.996
141.183251,3.36,24.142,-9.533
141.193954,3.71,25.797,-8.032
141.204657,3.78,26.75,-6.585
141.21536,3.71,27.577,-5.231
141.226063,4.27,28.21,-2.773
141.236766,5.32,28.584,-0.86
141.247469,7.21,29.314,-0.162
141.258172,8.75,29.8,-1.711
141.268875,7.98,29.447,-4.546
141.279578,4.83,29.094,-7.38
141.290294,-0.07,29.187,-8.714
141.30101,-5.46,28.882,-9.408
141.311726,-11.41,28.075,-10.474
141.322442,-16.17,26.506,-11.248
141.333158,-19.74,24.024,-10.477
141.343874,-21.21,20.529,-9.601
141.35459,-20.44,15.696,-8.392
141.365306,-20.51,10.801,-8.047
141.376022,-19.88,5.319,-5.175
141.386738,-17.08,1.188,0.92
141.397454,-15.26,-0.827,3.479
141.40817,-13.44,-1.48,3.151
141.41889,-11.76,-1.881,3.009
141.42961,-8.96,-2.469,4.327
141.44033,-6.3,-3.548,3.995
141.45105,-3.01,-4.282,2.515
141.46177,0.07,-5.405,2.032
141.47249,2.66,-6.626,2.101
141.48321,2.66,-8.9,2.909
141.49393,0.21,-10.267,2.597
141.50465,-5.04,-11.609,0.938
141.51537,-9.66,-12.035,0.934
141.52609,-13.16,-13.041,0.188
141.53681,-15.61,-14.797,-0.335
141.54753,-17.22,-16.281,-0.383
141.558277,-17.78,-17.432,0.907
141.569024,-16.17,-17.842,2.825
141.579771,-14,-17.213,3.291
141.590518,-11.48,-15.879,3.384
141.601265,-8.68,-13.782,3.185
141.612012,-5.6,-11.893,1.741
141.622759,-3.57,-10.109,0.492
141.633506,-1.96,-9.209,0.224
141.644253,-1.05,-9.326,0.488
141.655,-1.19,-9.294,0.707
141.665747,-1.33,-8.884,-0.003
141.676494,-0.35,-7.522,-0.473
141.687268,0.35,-6.184,-0.806
141.698042,1.19,-4.347,-1.548
141.708816,2.73,-2.871,-3.065
141.71959,3.85,-1.108,-4.602
141.730364,4.62,0.433,-5.681
141.741138,3.64,1.285,-5.673
141.751912,1.68,1.005,-4.088
141.762686,0.77,0.511,-2.895
141.77346,0.21,-0.272,-1.683
141.784234,1.12,-0.028,0.564
141.795008,2.17,0.601,3.447
141.805782,3.08,0.934,7.202
141.816566,2.87,1.169,11.508
141.82735,2.8,1.863,16.037
141.838134,1.75,4.629,19.297
141.848918,0.42,8.855,21.535
141.859702,-0.49,13.6,26.068
141.870486,-0.56,19.144,31.31
141.88127,-1.54,24.599,37.461
141.892054,-2.8,31.903,45.217
141.902838,-4.41,42.515,49.931
141.913622,-4.76,55.621,51.389
141.924406,-3.92,69.324,55.511
141.93519,-2.31,81.449,60.919
141.945974,2.17,93.002,62.316
141.956764,3.78,101.043,60.251
141.967554,5.39,107.43,63.936
141.978344,8.19,114.336,66.291
141.989134,8.89,119.153,64.369
141.999924,9.31,121.971,62.093
142.010714,8.96,123.337,59.989
142.021504,8.4,122.72,59.453
142.032294,7.14,120.259,59.304
142.043084,5.6,117.023,58.307
142.053874,4.13,115.709,57.293
142.064664,3.78,115.494,55.691
142.075454,4.06,115.688,50.963
142.08626,4.62,114.657,44.313
142.097066,5.88,112.134,39.675
142.107872,9.87,109.45,38.775
142.118678,15.47,105.905,36.302
142.129484,18.27,101.323,32.864
142.14029,20.23,98.362,30.707
142.151096,22.4,97.746,28.963
142.161902,25.06,98.415,28.797
142.172708,24.01,96.205,28.834
142.183514,21,91.035,30.339
142.19432,17.64,84.851,31.95
142.205126,13.58,79.438,32.417
142.215896,10.43,74.867,30.118
142.226666,8.19,70.321,27.682
142.237436,7.98,65.662,25.083
142.248206,8.4,60.285,22.927
142.258976,7.77,54.048,21.614
142.269746,6.58,47.58,20.402
142.280516,5.81,40.54,18.805
142.291286,4.62,33.411,16.909
142.302056,3.43,26.647,15.361
142.312826,4.62,20.135,13.999
142.323596,5.46,12.67,12.398
142.334366,3.78,4.843,12.44
142.345136,1.26,-2.687,12.818
142.355882,-0.7,-9.215,13.16
142.366628,-2.17,-15.277,12.873
142.377374,-4.13,-18.704,10.136
142.38812,-5.88,-20.996,5.396
142.398866,-8.05,-23.345,0.575
142.409612,-8.61,-24.857,-2.535
142.420358,-10.92,-26.436,-7.291
142.431104,-14.21,-27.632,-10.985
142.44185,-17.57,-27.75,-14.347
142.452596,-20.65,-27.37,-18.118
142.463342,-23.8,-26.677,-22.047
142.474088,-25.2,-26.231,-25.381
142.484818,-22.89,-26.84,-27.976
142.495548,-19.04,-28.45,-28.117
142.506278,-16.94,-31.84,-29.852
142.517008,-17.01,-36.743,-32.281
142.527738,-16.31,-42.906,-32.799
142.538468,-13.37,-48.871,-33.637
142.549198,-16.38,-56.796,-39.086
142.559928,-23.1,-67.773,-41.733
142.570658,-24.71,-78.238,-38.816
142.581388,-25.76,-87.723,-41.057
142.592118,-30.31,-94.411,-47.069
142.602848,-34.37,-99.046,-49.806
142.613575,-36.12,-100.21,-48.447
142.624302,-36.61,-99.39,-46.241
142.635029,-37.17,-98.753,-43.002
142.645756,-39.76,-99.267,-37.264
142.656483,-44.45,-102.465,-27.592
142.66721,-47.67,-104.824,-16.635
142.677937,-50.26,-105.691,-10.107
142.688664,-53.06,-106.015,-7.463
142.699391,-55.3,-105.058,-7.649
142.710118,-58.59,-104.187,-12.187
142.720845,-58.87,-104.2,-18.16
142.731572,-57.26,-105.794,-23.63
142.742284,-52.85,-107.19,-28.212
142.752996,-46.27,-107.831,-33.443
142.763708,-40.32,-108.359,-39.72
142.77442,-32.97,-108.38,-44.841
142.785132,-25.69,-107.423,-48.653
142.795844,-17.43,-104.476,-50.052
142.806556,-9.1,-99.35,-50.499
142.817268,-2.94,-93.925,-52.244
142.82798,0.77,-87.907,-53.315
142.838692,2.17,-82.048,-52.282
142.849404,0.84,-77.299,-49.383
142.860116,-2.38,-73.515,-45.446
142.870828,-6.3,-69.508,-41.968
142.881536,-11.41,-63.466,-39.552
142.892244,-13.58,-55.826,-38.133
142.902952,-13.58,-47.927,-36.172
142.91366,-12.11,-41.418,-31.968
142.924368,-10.08,-37.192,-26.105
142.935076,-8.05,-34.02,-18.295
142.945784,-6.23,-32.401,-10.547
142.956492,-6.65,-31.419,-4.829
142.9672,-5.46,-29.314,0.162
142.977908,-5.32,-26.791,2.384
142.988616,-6.44,-24.544,4.557
142.999324,-8.75,-22.168,6.398
143.009985,-11.41,-19.07,7.371
143.020646,-13.65,-16.373,8.201
143.031307,-15.33,-14.966,10.298
143.041968,-14.84,-14.438,12.95
143.052629,-13.09,-14.255,15.541
143.06329,-10.01,-13.752,17.122
143.073951,-7.98,-13.789,17.329
143.084612,-5.53,-13.768,16.408
143.095273,-1.61,-12.419,13.59
143.105934,-1.96,-11.482,10.699
143.116595,-4.48,-10.842,8.679
143.127256,-7.63,-10.453,6.473
143.137917,-9.31,-8.458,3.626
143.148584,-10.36,-6.131,-0.299
143.159251,-12.04,-4.356,-4.322
143.169918,-12.67,-4.307,-5.806
143.180585,-11.34,-4.473,-4.058
143.191252,-6.09,-4.789,-1.058
143.201919,0.7,-4.217,2.953
143.212586,2.03,-4.237,5.081
143.223253,-1.4,-5.044,4.015
143.23392,-7.28,-7.777,2.183
143.244587,-10.43,-10.173,3.679
143.255254,-11.13,-13.028,6.161
143.265921,-10.36,-15.084,6.936
143.27655,-10.71,-16.438,4.138
143.287179,-10.57,-16.832,-0.48
143.297808,-9.17,-16.067,-6.032
143.308437,-7.56,-14.693,-12.613
143.319066,-5.74,-13.4,-19.138
143.329695,-4.34,-12.249,-24.053
143.340324,-2.1,-11.593,-27.775
143.350953,0.07,-11.958,-29.332
143.361582,1.68,-13.15,-29.827
143.372211,2.66,-14.193,-30.366
143.38284,2.31,-15.43,-31.01
143.393469,1.68,-15.722,-31.773
143.404098,0.77,-15.182,-32.815
143.41474,-0.21,-13.994,-33.103
143.425382,-1.54,-13.11,-32.876
143.436024,-4.06,-12.19,-32.856
143.446666,-6.02,-12.072,-31.911
143.457308,-6.93,-12.275,-29.957
143.46795,-8.12,-12.611,-27.244
143.478592,-9.31,-12.549,-23.963
143.489234,-10.29,-11.969,-20.804
143.499876,-10.78,-11.592,-18.108
143.510518,-10.08,-10.513,-15.359
143.52116,-10.08,-9.49,-12.691
143.531802,-11.13,-8.509,-10.599
143.542444,-14.07,-7.377,-9.759
143.553102,-18.13,-6.583,-9.832
143.56376,-21.63,-5.63,-9.593
143.574418,-23.73,-4.425,-9.168
143.585076,-23.8,-3.862,-9.139
143.595734,-23.8,-4.401,-9.306
143.606392,-22.75,-4.385,-9.8
143.61705,-20.02,-3.323,-11.39
143.627708,-16.1,-1.478,-15.401
143.638366,-12.74,0.954,-20.729
143.649024,-10.15,3.419,-25.839
143.659682,-9.45,5.008,-29.61
143.67034,-11.13,5.162,-30.081
143.680983,-13.86,3.99,-26.662
143.691626,-19.67,1.473,-23.268
143.702269,-26.95,-2.472,-19.841
143.712912,-29.47,-5.947,-13.843
143.723555,-30.24,-8.103,-10.882
143.734198,-29.89,-10.845,-10.655
143.744841,-28.14,-14.969,-11.453
143.755484,-24.92,-19.453,-11.818
143.766127,-20.23,-24.044,-11.987
143.77677,-14.14,-27.936,-11.679
143.787413,-8.26,-31.03,-11.869
143.798056,-6.37,-32.714,-14.014
143.808699,-6.37,-34.608,-16.977
143.819339,-8.61,-35.403,-19.321
143.829979,-8.75,-36.648,-20.323
143.840619,-8.75,-38.996,-20.31
143.851259,-9.17,-41.951,-18.059
143.861899,-10.64,-45.613,-14.227
143.872539,-11.97,-48.828,-11.311
143.883179,-13.23,-51.102,-9.295
143.893819,-14.14,-52.542,-7.985
143.904459,-14,-53.369,-6.923
143.915099,-12.95,-54.07,-5.767
143.925739,-10.92,-53.985,-5.041
143.936379,-7.56,-53.413,-4.656
143.947033,-4.41,-53.02,-4.871
143.957687,-1.47,-52.878,-4.064
143.968341,0.77,-52.695,-2.681
143.978995,2.38,-51.896,-0.763
143.989649,2.73,-49.974,0.429
144.000303,1.89,-47.289,1.329
144.010957,0.35,-43.944,1.705
144.021611,-1.75,-41.324,2.167
144.032265,-3.78,-39.305,2.807
144.042919,-4.48,-37.111,3.265
144.053573,-4.2,-36.097,3.16
144.064227,-3.15,-35.72,2.231
144.074911,-2.87,-35.769,1.299
144.085595,-3.99,-36.544,0.451
144.096279,-6.3,-37.825,-1.552
144.106963,-9.24,-40.863,-4.078
144.117647,-9.52,-44.841,-5.703
144.128331,-9.52,-49.253,-5.273
144.139015,-8.82,-52.598,-4.441
144.149699,-6.93,-53.304,-5.276
144.160383,-8.47,-53.085,-7.725
144.171067,-14.77,-51.09,-10.572
144.181751,-21.49,-46.415,-12.094
144.192435,-28.28,-38.686,-12.792
144.2031,-32.62,-30.062,-13.333
144.213765,-34.37,-21.704,-9.94
144.22443,-34.79,-14.671,-3.866
144.235095,-33.6,-7.599,1.574
144.24576,-32.41,-1.609,3.483
144.256425,-28.07,2.178,4.578
144.26709,-25.27,3.894,5.733
144.277755,-24.01,4.839,8.032
144.28842,-21.77,6.404,9.232
144.299085,-18.27,7.239,8.527
144.30975,-15.54,7.073,7.858
144.320415,-13.72,8.103,8.466
144.33108,-11.48,10.114,8.749
144.341728,-9.31,14.563,9.32
144.352376,-7.42,20.277,11.181
144.363024,-8.75,25.828,10.738
144.373672,-11.55,30.421,6.857
144.38432,-9.94,34.659,5.4
144.394968,-8.61,38.312,6.045
144.405616,-5.74,40.725,7.679
144.416264,-1.19,42.656,9.227
144.426912,1.19,42.749,9.102
144.43756,4.13,42.996,7.297
144.448208,5.39,42.396,5.059
144.458856,4.9,40.729,2.419
144.469504,3.29,37.05,-0.504
144.48015,3.43,32.293,-3.759
144.490796,2.38,27.565,-6.37
144.501442,1.96,23.125,-7.793
144.512088,2.31,19.187,-8.843
144.522734,3.64,16.563,-8.879
144.53338,4.55,14.844,-9.608
144.544026,3.92,13.104,-9.418
144.554672,1.82,10.866,-7.609
144.565318,-2.03,8.17,-6.023
144.575964,-5.67,4.837,-4.052
144.58661,-8.68,1.378,-2.174
144.597256,-10.57,-1.659,-1.074
144.607904,-10.5,-6.241,-0.887
144.618552,-9.66,-12.948,0.063
144.6292,-6.37,-20.555,1.28
144.639848,-2.1,-30.242,-0.215
144.650496,1.96,-40.834,-2.225
144.661144,5.25,-51.377,-4.51
144.671792,6.44,-60.846,-8.454
144.68244,7.98,-68.859,-11.786
144.693088,10.08,-76.256,-14.583
144.703736,11.9,-81.889,-17.709
144.714384,13.09,-86.508,-20.94
144.725032,13.65,-90.174,-23.932
144.735679,14.42,-91.432,-27.281
144.746326,15.26,-89.166,-32.071
144.756973,17.29,-84.856,-36.357
144.76762,18.69,-81.944,-37.55
144.778267,19.88,-79.613,-37.068
144.788914,18.13,-77.82,-35.543
144.799561,15.96,-74.126,-31.907
144.810208,12.11,-68.663,-31.441
144.820855,4.9,-64.674,-32.301
144.831502,1.68,-57.475,-27.975
144.842149,3.99,-46.158,-26.051
144.852796,9.52,-29.589,-30.522
144.863443,16.52,-10.718,-36.364
144.87411,22.68,6.126,-37.161
144.884777,26.32,17.359,-28.712
144.895444,25.62,21.275,-11.815
144.906111,19.53,19.542,6.076
144.916778,10.92,13.777,14.584
144.927445,0.91,5.143,12.351
144.938112,-9.8,-3.559,7.689
144.948779,-17.57,-11.629,1.859
144.959446,-20.93,-17.895,-3.724
144.970113,-22.61,-22.567,-8.67
144.98078,-22.89,-24.952,-13.285
144.991447,-20.58,-26.599,-16.845
145.002114,-15.19,-27.122,-18.714
145.012781,-9.17,-26.985,-19.898
145.023482,-1.68,-25.906,-20.774
145.034183,6.02,-23.854,-21.123
145.044884,11.34,-22.914,-20.815
145.055585,14.21,-23.967,-17.66
145.066286,15.33,-25.423,-13.439
145.076987,14.91,-26.326,-10.328
145.087688,13.16,-26.29,-8.118
145.098389,10.71,-25.434,-6.119
145.10909,8.47,-24.213,-4.98
145.119791,5.74,-22.997,-4.624
145.130522,3.43,-21.143,-4.652
145.141253,1.61,-19.197,-4.807
145.151984,0.84,-18.252,-4.924
145.162715,0.28,-18.487,-4.397
145.173446,0.28,-19.699,-1.554
145.184177,0.42,-21.443,1.479
145.194908,2.45,-23.109,4.881
145.205639,5.46,-22.415,8.202
145.21637,6.79,-19.252,9.613
145.227101,6.58,-15.343,8.81
145.237832,4.27,-11.799,6.449
145.248563,2.17,-8.811,5.625
145.259294,-2.52,-7.035,5.228
145.270065,-8.33,-6.268,4.51
145.280836,-11.97,-5.94,3.857
145.291607,-14.35,-4.995,3.739
145.302378,-14.21,-3.677,4.327
145.313149,-11.41,-1.516,4.566
145.32392,-7.7,1.063,4.452
145.334691,-4.55,4.27,3.596
145.345462,-4.06,6.168,4.926
145.356233,-5.18,6.501,7.472
145.367004,-9.45,6.307,8.575
145.377775,-15.05,5.922,9.147
145.388546,-16.03,5.837,13.255
145.399318,-10.85,5.392,20.213
145.41009,-8.47,4.601,22.277
145.420862,-7.7,4.131,22.123
145.431634,-3.36,2.655,24.849
145.442406,1.96,1.33,28.738
145.453178,4.48,0.138,30.66
145.46395,2.1,0.158,28.531
145.474722,-3.01,1.929,23.725
145.485494,-4.2,5.94,21.945
145.496266,-2.45,11.803,21.344
145.507038,-0.56,19.45,18.285
145.51781,-0.42,28.184,13.499
145.528582,-1.26,36.468,7.639
145.539334,0.84,44.256,0.553
145.550086,3.01,50.31,-5.558
145.560838,3.99,55.021,-8.495
145.57159,1.4,56.845,-11.585
145.582342,-0.49,58.739,-12.246
145.593094,-1.4,60.402,-11.598
145.603846,-1.96,62.068,-10.166
145.614598,-1.75,64.112,-8.455
145.62535,-2.31,67.373,-6.388
145.636102,-3.43,71.505,-4.024
145.646854,-4.9,76.453,-1.446
145.657606,-6.65,80.309,0.869
145.668358,-7.63,83.517,3.638
145.679086,-9.38,84.868,5.653
145.689814,-11.06,83.911,7.048
145.700542,-12.74,78.554,7.596
145.71127,-14.14,68.425,9.009
145.721998,-14.21,55.624,10.661
145.732726,-12.81,42.591,11.206
145.743454,-10.36,30.426,10.056
145.754182,-8.4,19.319,6.534
145.76491,-6.51,9.258,1.917
145.775638,-5.53,-0.949,-3.082
145.786366,-5.11,-12.438,-6.458
145.797094,-5.81,-24.802,-9.704
145.807838,-6.44,-35.678,-14.536
145.818582,-10.43,-45.346,-19.368
145.829326,-13.16,-53.829,-24.063
145.84007,-15.82,-62.581,-29.658
145.850814,-18.83,-70.712,-35.143
145.861558,-20.79,-77.144,-40.186
145.872302,-22.61,-81.597,-45.165
145.883046,-23.94,-83.629,-49.362
145.89379,-24.29,-83.933,-52.472
145.904534,-26.04,-82.786,-53.336
145.915278,-27.09,-81.326,-51.941
145.926022,-24.57,-77.794,-50.608
145.936757,-23.31,-73.897,-50.134
145.947492,-19.95,-68.078,-50.885
145.958227,-15.05,-62.75,-53.286
145.968962,-7.49,-57.84,-52.918
145.979697,-0.35,-53.744,-50.347
145.990432,4.13,-50.378,-48.474
146.001167,3.29,-47.053,-47.177
146.011902,-1.61,-44.388,-45.357
146.022637,-5.95,-41.598,-43.443
146.033372,-8.68,-35.218,-35.282
146.044107,-10.08,-32.043,-32.731
146.054842,-11.2,-28.981,-30.344
146.065577,-9.94,-25.907,-28.024
146.076382,-6.86,-22.789,-25.555
146.087187,-3.5,-19.938,-23.987
146.097992,0.63,-17.383,-22.754
146.108797,5.6,-16.203,-20.982
146.119602,11.62,-15.951,-18.379
146.130407,16.87,-17.548,-14.965
146.141212,21.98,-19.847,-11.603
146.152017,25.27,-21.395,-8.464
146.162822,27.23,-23.199,-6.294
146.173627,27.23,-24.379,-4.441
146.184432,25.27,-24.63,-2.211
146.195245,22.96,-24.407,-0.252
146.206058,19.53,-23.263,1.727
146.216871,16.1,-21.211,3.794
146.227684,11.76,-20.217,5.818
146.238497,7.49,-19.382,8.737
146.24931,2.87,-19.337,11.304
146.260123,-2.52,-18.708,12.979
146.270936,-6.16,-17.52,12.691
146.281749,-6.09,-15.898,12.763
146.292562,-4.2,-13.704,14.43
146.303375,-3.85,-11.64,15.22
146.314188,-3.5,-10.31,14.53
146.325001,-2.87,-9.921,14.741
146.335864,-3.85,-9.742,16.55
146.346727,-7.07,-9.835,17.884
146.35759,-11.34,-10.719,20.074
146.368453,-14.63,-12.069,22.892
146.379316,-15.61,-14.481,24.883
146.390179,-13.09,-16.768,25.76
146.401042,-8.68,-18.151,25.942
146.411905,-2.66,-18.102,28.083
146.422768,0.49,-17.031,26.85
146.433631,1.47,-15.487,24.137
146.444494,2.52,-12.531,23.095
146.455357,1.47,-9.019,20.515
146.466214,-1.05,-6.4,17.352
146.477071,-5.6,-3.607,15.215
146.487928,-11.48,-1.032,14.318
146.498785,-14.77,1.474,13.41
146.509642,-17.01,3.736,10.255
146.520499,-21,4.721,8.296
146.531356,-23.31,4.426,11.584
146.542213,-23.17,2.978,14.954
146.55307,-23.52,0.72,16.475
146.563927,-23.8,-1.157,19.059
146.574784,-24.08,-2.661,22.347
146.585641,-19.81,-3.196,24.172
146.596498,-12.25,-2.369,24.318
146.607361,-4.2,-0.614,20.007
146.618224,1.4,1.915,10.502
146.629087,6.02,4.586,-1.821
146.63995,10.01,7.277,-15.065
146.650813,11.69,8.926,-25.223
146.661676,11.62,9.821,-29.899
146.672539,11.41,10.129,-32.048
146.683402,10.29,9.695,-33.617
146.694265,8.33,8.576,-32.109
146.705128,6.02,6.955,-27.348
146.715991,4.41,5.869,-21.995
146.726854,3.64,5.849,-16.241
146.73771,-0.21,6.089,-12.36
146.748566,-5.25,7.05,-10.556
146.759422,-12.46,7.784,-10.285
146.770278,-13.02,9.601,-10.106
146.781134,-13.51,10.712,-11.972
146.79199,-9.24,13.113,-9.061
146.802846,-6.16,14.658,-8.149
146.813702,-4.27,15.651,-8.542
146.824558,0.07,17.946,-7.853
146.835414,5.18,19.743,-7.963
146.84627,10.36,21.312,-7.188
146.857126,14.07,22.419,-6.211
146.867982,14.35,23.466,-4.89
146.878829,10.22,24.504,-2.716
146.889676,2.87,23.726,-0.721
146.900523,-4.55,20.697,-0.473
146.91137,-8.12,17.854,0.731
146.922217,-8.4,16.504,-0.075
146.933064,-8.47,15.713,-4.053
146.943911,-5.32,16.008,-7.342
146.954758,-1.68,17.561,-10.906
146.965605,1.61,18.627,-12.922
146.976452,3.08,19.499,-13.834
146.987299,1.33,18.104,-13.583
146.998146,-0.14,15.748,-9.093
147.008943,-3.92,12.793,-5.634
147.01974,-11.97,9.792,-2.325
147.030537,-18.06,7.985,6.313
147.041334,-15.61,8.862,12.225
147.052131,-12.74,10.998,8.976
147.062928,-11.13,12.96,3.494
147.073725,-8.12,15.211,2.824
147.084522,-3.85,18.11,5.326
147.095319,0.7,21.257,6.023
147.106116,3.64,21.975,4.372
147.116913,4.9,20.097,5.747
147.12771,6.44,19.259,10.504
147.138507,6.79,18.919,14.851
147.149278,4.55,18.416,18.103
147.160049,0.91,17.983,20.159
147.17082,-1.61,18.993,21.688
147.181591,-3.15,19.994,22.859
147.192362,-3.01,21.961,22.993
147.203133,-2.87,24.37,23.844
147.213904,-2.73,26.491,24.716
147.224675,-2.66,28.157,24.938
147.235446,-1.89,28.145,25.007
147.246217,0.56,27.638,26.268
147.256988,3.43,27.553,26.751
147.267759,5.25,27.959,26.467
147.278516,5.04,27.127,25.539
147.289273,3.71,26.341,25.969
147.30003,1.33,25.704,27.562
147.310787,-0.91,26.889,28.908
147.321544,-5.18,28.993,26.649
147.332301,-8.61,32.816,25.12
147.343058,-9.17,36.259,22.529
147.353815,-9.87,38.027,21.774
147.364572,-9.31,39.544,24.458
147.375329,-7.56,41.292,25.833
147.386086,-4.34,43.793,25.35
147.396843,-1.61,45.865,25.289
147.407552,0.49,46.774,25.378
147.418261,1.89,47.001,24.494
147.42897,1.19,47.321,22.276
147.439679,-1.05,50.118,18.504
147.450388,-3.29,53.816,13.256
147.461097,-3.5,56.803,7.599
147.471806,-4.27,56.499,4.489
147.482515,-5.18,53.608,4.761
147.493224,-4.9,50.51,6.205
147.503933,-2.31,49.42,9.567
147.514642,-0.56,52.303,12.563
147.525351,0.35,59.059,13.754
147.53606,4.83,68.977,9.106
147.546718,5.04,73.488,-0.76
147.557376,0.21,74.441,-0.521
147.568034,-3.08,75.294,5.529
147.578692,-0.49,75.152,4.722
147.58935,-2.66,68.234,2.436
147.600008,-9.87,57.307,11.597
147.610666,-11.13,48.177,23.066
147.621324,-10.01,39.969,23.254
147.631982,-12.39,30.715,19.703
147.64264,-16.73,19.799,20.337
147.653298,-18.69,7.667,23.031
147.663956,-17.22,-3.897,25.328
147.674614,-13.09,-13.597,25.11
147.685232,-8.68,-22.19,21.036
147.69585,-3.43,-27.455,13
147.706468,3.08,-30.939,1.724
147.717086,8.47,-34.205,-8.377
147.727704,11.41,-37.689,-14.82
147.738322,11.76,-42.771,-20.265
147.74894,9.8,-47.41,-23.784
147.759558,6.72,-52.252,-24.14
147.770176,3.29,-56.465,-21.613
147.780794,0.07,-60.625,-19.788
147.791412,-2.38,-63.853,-19.22
147.80203,-3.08,-66.01,-18.676
147.812628,-3.36,-67.94,-17.808
147.823226,-2.52,-68.337,-18.376
147.833824,-1.82,-67.202,-19.171
147.844422,0,-64.501,-19.974
147.85502,1.96,-61.103,-20.299
147.865618,3.5,-59.051,-19.44
147.876216,3.64,-58.171,-17.578
147.886814,3.08,-57.238,-16.419
147.897412,2.59,-55.718,-16.577
147.90801,1.26,-53.208,-17.912
147.918608,-0.84,-49.599,-19.834
147.929206,-3.78,-46.23,-23.221
147.939796,-9.1,-44.313,-26.436
147.950386,-14.77,-43.417,-27.487
147.960976,-19.11,-42.504,-29.032
147.971566,-21.56,-42.29,-32.264
147.982156,-21.77,-42.631,-35.167
147.992746,-20.16,-43.815,-36.513
148.003336,-19.46,-46.414,-35.479
148.013926,-18.41,-49.163,-31.983
148.024516,-16.59,-51.835,-28.118
148.035106,-14.7,-54.288,-25.494
148.045696,-11.62,-56.335,-24.363
148.056286,-8.4,-58.659,-24.488
148.066876,-5.39,-61.87,-24.415
148.077458,-5.11,-66.018,-22.658
148.08804,-5.39,-70.17,-19.268
148.098622,-10.08,-73.601,-19.162
148.109204,-23.8,-78.661,-18.277
148.119786,-30.66,-82.001,-8.204
148.130368,-29.47,-82.678,-2.353
148.14095,-32.55,-81.275,-8.289
148.151532,-37.45,-78.904,-15.69
148.162114,-37.17,-74.975,-19.831
148.172696,-32.06,-69.826,-25.249
148.183278,-25.55,-65.894,-31.024
148.19386,-16.66,-63.689,-35.468
148.204442,-7.28,-63.104,-33.944
148.215053,2.1,-62.807,-26.357
148.225664,10.36,-61.943,-20.376
148.236275,15.4,-60.6,-15.092
148.246886,17.01,-58.604,-9.481
148.257497,15.47,-56.065,-5.337
148.268108,12.11,-52.237,-2.458
148.278719,7.7,-49.337,0.043
148.28933,4.41,-47.759,3.591
148.299941,0.7,-45.788,6.924
148.310552,-2.87,-44.056,7.585
148.321163,-6.16,-41.036,6.98
148.331794,-8.75,-38.984,5.423
148.342425,-12.67,-37.386,4.425
148.353056,-15.05,-35.846,3.346
148.363687,-15.26,-34.767,1.262
148.374318,-14.49,-33.973,-0.02
148.384949,-11.2,-32.107,-0.117
148.39558,-4.69,-29.358,0.012
148.406211,3.15,-25.522,-0.378
148.416842,10.78,-22.343,-0.67
148.427473,20.02,-20.547,0.429
148.438104,29.75,-19.204,0.879
148.448735,37.31,-18.592,3.048
148.459366,42.42,-17.139,7.711
148.469995,44.8,-15.78,11.291
148.480624,45.36,-12.995,12.422
148.491253,42.91,-9.649,12.799
148.501882,38.57,-6.689,12.539
148.512511,35.56,-3.611,14.432
148.52314,33.95,-1.632,15.705
148.533769,32.69,-0.261,15.591
148.544398,33.18,0.87,16.431
148.555027,34.3,1.633,17.347
148.565656,37.1,3.36,17.225
148.576285,39.62,5.262,16.921
