Time,AccelerometerX,AccelerometerY,AccelerometerZ
108.00773,-0.902,-11.662,0.174
108.01739,-0.745,-12.261,0.188
108.02705,-0.51,-13.432,-0.178
108.03671,-0.196,-14.47,-0.162
108.04637,-0.118,-13.466,0.693
108.05603,-0.118,-11.921,0.965
108.06569,0.157,-11.103,0.392
108.07537,0.078,-10.712,0.66
108.08505,0.235,-10.516,1.133
108.09473,0.51,-10.716,1.138
108.10441,0.588,-11.334,1.029
108.11409,0.588,-11.93,1.242
108.12377,0.628,-12.177,1.517
108.13345,0.667,-12.132,1.486
108.14313,0.706,-12.143,1.324
108.15281,0.785,-12.161,1.201
108.16249,0.824,-12.082,0.977
108.17217,0.785,-11.764,0.754
108.18185,0.706,-11.273,0.681
108.19153,0.667,-10.519,0.695
108.201225,0.431,-9.746,0.831
108.21092,0.235,-8.889,0.942
108.220615,-0.039,-8.239,1.096
108.23031,-0.196,-7.699,1.192
108.240005,-0.431,-7.358,1.292
108.2497,-0.588,-7.094,1.378
108.259395,-0.785,-6.965,1.321
108.26909,-0.981,-6.874,1.258
108.278785,-1.138,-6.853,1.142
108.28848,-1.177,-6.91,1.012
108.298175,-1.177,-7.121,0.855
108.30787,-1.138,-7.34,0.737
108.317565,-1.177,-7.558,0.619
108.32726,-1.02,-7.667,0.56
108.336953,-0.981,-7.737,0.508
108.346646,-0.941,-7.814,0.494
108.356339,-0.902,-7.951,0.59
108.366032,-0.902,-7.939,0.751
108.375725,-0.941,-7.889,0.919
108.385418,-1.02,-7.93,1.151
108.395111,-1.059,-8.126,1.355
108.404804,-1.059,-8.296,1.644
108.414497,-1.059,-8.503,1.687
108.42419,-1.02,-9.025,1.715
108.433883,-1.059,-9.709,1.753
108.443576,-1.138,-10.671,1.783
108.453269,-1.216,-11.645,1.89
108.462962,-1.334,-12.304,2.013
108.472652,-1.451,-12.441,2.108
108.482342,-1.53,-12.279,2.097
108.492032,-1.608,-12.202,2.11
108.501722,-1.765,-12.114,2.285
108.511412,-1.961,-11.85,2.372
108.521102,-2.118,-11.67,2.483
108.530792,-2.275,-11.761,2.547
108.540482,-2.432,-12.225,2.465
108.550172,-2.511,-13.529,1.956
108.559862,-2.471,-14.69,1.99
108.569552,-2.55,-13.375,2.66
108.579242,-2.785,-11.379,3.092
108.588932,-2.707,-10.002,2.737
108.598622,-2.393,-10.359,2.276
108.608312,-2.55,-10.705,2.653
108.61803,-2.785,-10.366,2.992
108.627748,-2.707,-10.527,2.326
108.637466,-2.628,-10.982,1.967
108.647184,-2.981,-11.243,2.319
108.656902,-3.177,-11,2.522
108.66662,-3.256,-10.448,2.778
108.676338,-3.295,-10.075,2.924
108.686056,-3.334,-9.948,3.105
108.695774,-3.295,-9.982,3.299
108.705492,-3.138,-10.266,3.328
108.71521,-2.903,-10.498,3.287
108.724928,-2.628,-10.477,3.171
108.734654,-2.354,-10.257,3.051
108.74438,-2.079,-9.939,2.828
108.754106,-1.765,-9.55,2.658
108.763832,-1.569,-9.137,2.571
108.773558,-1.412,-8.6,2.467
108.783284,-1.216,-8.11,2.394
108.79301,-1.138,-7.664,2.353
108.802736,-1.098,-7.328,2.253
108.812462,-1.059,-7.069,2.139
108.822188,-1.177,-6.926,2.005
108.831914,-1.216,-6.867,1.896
108.84164,-1.177,-6.885,1.773
108.851366,-1.177,-6.935,1.605
108.861092,-1.098,-6.96,1.521
108.870812,-1.059,-6.953,1.483
108.880532,-1.059,-6.837,1.503
108.890252,-1.138,-6.735,1.601
108.899972,-1.334,-6.671,1.692
108.909692,-1.373,-6.653,1.814
108.919412,-1.491,-6.905,1.889
108.929132,-1.569,-7.512,1.942
108.938852,-1.726,-8.332,2.076
108.948572,-1.883,-9.241,2.035
108.958292,-2.04,-10.08,2.047
108.968012,-2.079,-10.757,2.047
108.977732,-2.04,-11.202,2.088
108.987452,-1.922,-11.286,2.113
108.997172,-1.765,-11.286,2.113
109.006892,-1.648,-11.177,2.172
109.016609,-1.53,-11.107,2.224
109.026326,-1.412,-11.068,2.231
109.036043,-1.334,-11.202,2.088
109.04576,-1.216,-11.666,2.006
109.055477,-1.138,-12.52,1.656
109.065194,-0.941,-13.87,1.179
109.074911,-0.824,-13.631,1.858
109.084628,-0.706,-12.132,2.163
109.094345,-0.392,-11.093,1.469
109.104062,-0.078,-11.077,1.154
109.113779,-0.196,-10.502,1.733
109.123496,-0.118,-9.55,1.981
109.133213,0.078,-9.057,1.669
109.142949,0.118,-9.732,1.431
109.152685,0,-10.63,1.551
109.162421,-0.157,-11.052,1.915
109.172157,-0.157,-10.7,2.176
109.181893,-0.078,-10.203,2.065
109.191629,-0.118,-10.091,1.885
109.201365,-0.118,-10.253,1.897
109.211101,-0.157,-10.434,2.024
109.220837,-0.196,-10.203,2.065
109.230573,-0.353,-9.707,2.192
109.240309,-0.51,-9.212,2.319
109.250045,-0.628,-8.723,2.485
109.259781,-0.863,-8.425,2.378
109.269514,-1.059,-8.335,2.314
109.279247,-1.177,-8.276,2.205
109.28898,-1.138,-8.16,2.226
109.298713,-1.216,-8.069,2.162
109.308446,-1.255,-8.023,2.13
109.318179,-1.294,-8.171,2.064
109.327912,-1.373,-8.41,2.062
109.337645,-1.451,-8.571,2.074
109.347378,-1.569,-8.553,2.196
109.357111,-1.569,-8.335,2.314
109.366844,-1.569,-8.187,2.38
109.376577,-1.412,-7.951,2.621
109.38631,-1.373,-7.939,2.782
109.396043,-1.373,-8.244,2.928
109.405763,-1.53,-8.657,3.014
109.415483,-1.53,-9.078,3.139
109.425203,-1.53,-9.264,3.067
109.434923,-1.491,-9.393,3.123
109.444643,-1.451,-9.618,3.044
109.454363,-1.373,-9.78,3.055
109.464083,-1.334,-9.677,3.153
109.473803,-1.294,-9.555,3.135
109.483523,-1.294,-9.593,3.128
109.493243,-1.294,-9.709,3.108
109.502963,-1.255,-9.825,3.087
109.512683,-1.294,-9.889,2.996
109.522403,-1.412,-10.068,2.885
109.532123,-1.53,-10.427,2.662
109.541816,-1.726,-10.789,2.678
109.551509,-1.844,-11.109,2.462
109.561202,-1.922,-11.866,2.01
109.570895,-2.079,-12.15,2.04
109.580588,-2.314,-11.709,2.476
109.590281,-2.432,-11.118,2.74
109.599974,-2.471,-10.527,3.003
109.609667,-2.589,-9.923,3.189
109.61936,-2.589,-9.312,3.337
109.629053,-2.55,-8.828,3.303
109.638746,-2.393,-8.853,3.219
109.648439,-2.197,-9.464,3.071
109.658132,-2.118,-10.359,2.953
109.667825,-2.118,-11.479,2.756
109.677525,-2.118,-12.304,2.69
109.687225,-2.001,-12.761,2.57
109.696925,-1.922,-12.709,2.499
109.706625,-1.922,-12.257,2.419
109.716325,-1.922,-11.689,2.36
109.726025,-1.765,-11.191,2.249
109.735725,-1.608,-10.809,2.117
109.745425,-1.491,-10.564,2.081
109.755125,-1.373,-10.35,1.999
109.764825,-1.216,-10.15,1.994
109.774525,-0.981,-9.834,2.01
109.784225,-0.785,-9.389,1.969
109.793925,-0.549,-8.937,1.89
109.80362,-0.51,-8.478,1.771
109.813315,-0.471,-8.064,1.685
109.82301,-0.588,-7.664,1.676
109.832705,-0.667,-7.296,1.621
109.8424,-0.667,-6.974,1.598
109.852095,-0.628,-6.715,1.485
109.86179,-0.588,-6.501,1.403
109.871485,-0.549,-6.403,1.301
109.88118,-0.471,-6.351,1.23
109.890875,-0.51,-6.344,1.192
109.90057,-0.588,-6.331,1.114
109.910265,-0.706,-6.201,1.057
109.91996,-0.745,-6.097,0.917
109.929655,-0.745,-6.153,0.787
109.939365,-0.785,-6.34,0.714
109.949075,-0.824,-6.715,0.808
109.958785,-0.706,-7.083,0.862
109.968495,-0.628,-7.374,0.93
109.978205,-0.667,-7.458,0.955
109.987915,-0.785,-7.58,0.974
109.997625,-0.902,-7.826,1.01
110.007335,-1.059,-8.121,0.878
110.017045,-1.177,-8.635,0.628
110.026755,-1.373,-9.337,0.544
110.036465,-1.608,-9.86,0.572
110.046175,-1.726,-10.105,0.608
110.055885,-1.726,-10.073,0.654
110.065585,-1.765,-10.021,0.583
110.075285,-1.804,-10,0.467
110.084985,-1.804,-10.148,0.401
110.094685,-1.844,-10.282,0.258
110.104385,-1.883,-10.346,0.167
110.114085,-1.765,-10.416,0.115
110.123785,-1.608,-10.55,-0.028
110.133485,-1.53,-10.491,-0.137
110.143185,-1.373,-10.355,-0.233
110.152885,-1.216,-10.205,-0.405
110.162585,-1.059,-10.178,-0.56
110.172285,-0.941,-10.01,-0.61
110.181985,-0.785,-10.169,-0.837
110.191685,-0.745,-10.426,-0.962
110.201394,-0.706,-10.773,-1.023
110.211103,-0.667,-11.148,-0.93
110.220812,-0.706,-11.537,-0.76
110.230521,-0.588,-11.689,-0.348
110.24023,-0.431,-11.557,0.033
110.249939,-0.392,-11.175,0.579
110.259648,-0.353,-11.105,0.631
110.269357,-0.353,-12.189,0.002
110.279066,-0.078,-14.354,-0.818
110.288775,-0.314,-14.966,-0.289
110.298484,-0.196,-13.918,0.095
110.308193,0.039,-12.984,0.22
110.317902,0.235,-12.193,0.479
110.327593,0.431,-12.055,0.822
110.337284,0.667,-12.402,0.761
110.346975,0.706,-12.757,0.738
110.356666,0.824,-12.923,0.549
110.366357,0.902,-12.961,0.543
110.376048,0.981,-13.154,0.509
110.385739,0.941,-13.218,0.418
110.39543,0.745,-13.109,0.477
110.405121,0.588,-12.73,0.583
110.414812,0.353,-12.143,0.647
110.424503,0.235,-11.602,0.742
110.434194,0.039,-10.939,0.82
110.443885,-0.118,-10.198,0.91
110.453576,-0.157,-9.514,0.872
110.463273,-0.235,-8.96,0.89
110.47297,-0.196,-8.469,0.817
110.482667,-0.196,-8.094,0.724
110.492364,-0.118,-7.849,0.687
110.502061,0,-7.487,0.671
110.511758,0.196,-7.042,0.63
110.521455,0.196,-6.692,0.453
110.531152,0.235,-6.465,0.294
110.540849,0.157,-6.367,0.192
110.550546,0.118,-6.392,0.108
110.560243,0.078,-6.392,0.108
110.56994,0.039,-6.276,0.128
110.579637,0,-6.044,0.169
110.589319,-0.078,-5.69,0.192
110.599001,-0.078,-5.413,0.201
110.608683,-0.118,-5.22,0.235
110.618365,-0.118,-5.135,0.21
110.628047,0.039,-5.367,0.169
110.637729,0.157,-5.851,0.203
110.647411,0.235,-6.251,0.212
110.657093,0.353,-6.574,0.235
110.666775,0.314,-6.722,0.169
110.676457,0.118,-7.01,-0.001
110.686139,-0.039,-7.485,-0.244
110.695821,-0.118,-8.187,-0.328
110.705503,-0.196,-8.91,-0.296
110.715185,-0.314,-9.467,-0.076
110.724851,-0.392,-9.592,0.181
110.734517,-0.471,-9.401,0.454
110.744183,-0.471,-9.267,0.597
110.753849,-0.51,-9.36,0.899
110.763515,-0.588,-9.907,0.842
110.773181,-0.745,-10.873,0.672
110.782847,-0.902,-12.116,0.493
110.792513,-1.098,-13.207,0.579
110.802179,-1.334,-13.704,0.69
110.811845,-1.491,-14.034,0.752
110.821511,-1.648,-13.709,1.168
110.831177,-1.883,-12.934,1.742
110.840843,-2.001,-12.836,1.64
110.850509,-1.804,-14.395,0.768
110.860191,-1.687,-16.868,0.332
110.869873,-2.04,-15.627,1.427
110.879555,-2.157,-13.806,1.947
110.889237,-1.765,-12.668,1.59
110.898919,-1.687,-12.77,1.492
110.908601,-1.687,-13.913,1.649
110.918283,-1.648,-14.765,1.738
110.927965,-1.608,-15.004,1.736
110.937647,-1.608,-14.984,1.62
110.947329,-1.53,-14.822,1.609
110.957011,-1.53,-14.454,1.554
110.966693,-1.451,-13.759,1.677
110.976375,-1.373,-12.923,1.904
110.986059,-1.216,-11.943,1.997
110.995743,-1.216,-11.08,2.069
111.005427,-1.294,-10.371,2.115
111.015111,-1.216,-9.759,2.262
111.024795,-1.177,-9.262,2.151
111.034479,-1.098,-8.912,1.974
111.044163,-1.02,-8.562,1.796
111.053847,-0.824,-8.205,1.58
111.063531,-0.706,-7.848,1.364
111.073215,-0.628,-7.383,1.208
111.082899,-0.549,-6.917,1.051
111.092583,-0.549,-6.381,0.946
111.102267,-0.353,-5.844,0.842
111.111951,-0.275,-5.322,0.814
111.121628,-0.314,-4.826,0.941
111.131305,-0.314,-4.504,0.919
111.140982,-0.235,-4.381,0.9
111.150659,-0.275,-4.529,0.835
111.160336,-0.275,-4.824,0.703
111.170013,-0.314,-5.158,0.564
111.17969,-0.314,-5.569,0.412
111.189367,-0.353,-6.11,0.317
111.199044,-0.392,-6.612,0.228
111.208721,-0.471,-7.065,0.308
111.218398,-0.51,-7.285,0.428
111.228075,-0.588,-7.292,0.467
111.237752,-0.549,-7.446,0.44
111.247429,-0.628,-7.685,0.437
111.257089,-0.706,-8.06,0.531
111.266749,-0.824,-8.305,0.567
111.276409,-0.902,-8.46,0.54
111.286069,-0.981,-8.653,0.506
111.295729,-0.902,-8.853,0.51
111.305389,-0.785,-9.348,0.383
111.315049,-0.588,-10.228,-0.051
111.324709,-0.314,-11.534,-0.321
111.334369,-0.157,-12.882,-0.36
111.344029,-0.078,-13.734,-0.271
111.353689,-0.118,-13.786,-0.2
111.363349,-0.157,-13.58,-0.244
111.373009,-0.118,-13.47,-0.184
111.382669,-0.078,-13.4,-0.132
111.392351,-0.078,-13.511,0.047
111.402033,0,-13.873,0.063
111.411715,0.078,-14.788,0.061
111.421397,0.196,-15.161,0.593
111.431079,0.196,-14.829,0.97
111.440761,0.431,-14.654,0.881
111.450443,0.628,-14.795,0.777
111.460125,0.667,-15.368,0.636
111.469807,0.628,-15.656,0.466
111.479489,0.588,-15.597,0.357
111.489171,0.51,-15.204,0.386
111.498853,0.471,-14.67,0.52
111.508535,0.353,-13.904,0.695
111.518234,0.275,-12.952,0.943
111.527933,0.157,-12,1.19
111.537632,0.078,-11.368,1.222
111.547331,0.039,-10.993,1.129
111.55703,0,-10.653,1.229
111.566729,0,-10.137,1.24
111.576428,0.039,-9.646,1.167
111.586127,0.118,-9.187,1.049
111.595826,0.118,-8.805,0.917
111.605525,0.157,-8.392,0.831
111.615224,0.157,-8.03,0.815
111.624923,0.196,-7.701,0.753
111.634622,0.196,-7.262,0.751
111.644321,0.235,-6.881,0.619
111.654015,0.314,-6.64,0.383
111.663709,0.353,-6.535,0.242
111.673403,0.314,-6.606,0.19
111.683097,0.314,-6.694,0.015
111.692791,0.275,-6.617,0.028
111.702485,0.275,-6.34,0.037
111.712179,0.275,-6.017,0.014
111.721873,0.314,-5.779,0.017
111.731567,0.392,-5.772,-0.022
111.741261,0.471,-5.733,-0.015
111.750955,0.549,-5.624,0.044
111.760649,0.588,-5.463,0.033
111.770343,0.706,-5.256,-0.011
111.780037,0.745,-4.985,0.037
111.789715,0.785,-5.063,0.023
111.799393,0.706,-5.404,-0.077
111.809071,0.588,-5.965,-0.056
111.818749,0.51,-6.526,-0.035
111.828427,0.392,-7.081,-0.054
111.838105,0.275,-7.371,0.015
111.847783,0.196,-7.474,-0.083
111.857461,0.039,-7.621,-0.149
111.867139,-0.157,-7.849,0.01
111.876817,-0.431,-8.217,0.065
111.886495,-0.824,-8.876,0.188
111.896173,-1.098,-10.144,-0.076
111.905851,-1.255,-11.621,-0.057
111.915529,-1.491,-12.957,0.065
111.925195,-1.726,-13.957,0.088
111.934861,-2.04,-14.088,0.384
111.944527,-2.314,-13.536,0.64
111.954193,-2.511,-13.393,0.506
111.963859,-2.55,-13.734,0.406
111.973525,-2.432,-15.063,-0.187
111.983191,-2.236,-16.82,-0.616
111.992857,-2.55,-16.015,0.243
112.002523,-2.628,-14.695,0.436
112.012189,-2.55,-13.87,0.502
112.021855,-2.589,-13.936,0.65
112.031521,-2.589,-14.654,0.881
112.041187,-2.707,-15.068,0.968
112.050853,-2.824,-15.236,1.018
112.060532,-2.746,-15.3,0.927
112.070211,-2.628,-15.415,0.907
112.07989,-2.55,-15.363,0.836
112.089569,-2.471,-14.931,0.872
112.099248,-2.275,-14.243,1.034
112.108927,-2.118,-13.323,1.236
112.118606,-1.883,-12.357,1.406
112.128285,-1.648,-11.409,1.454
112.137964,-1.412,-10.532,1.449
112.147643,-1.255,-9.823,1.494
112.157322,-1.138,-9.203,1.365
112.167001,-1.02,-8.757,1.324
112.17668,-0.902,-8.267,1.251
112.18636,-0.902,-7.794,1.055
112.19604,-0.824,-7.419,0.962
112.20572,-0.785,-7.044,0.869
112.2154,-0.745,-6.715,0.808
112.22508,-0.628,-6.308,0.76
112.23476,-0.549,-5.926,0.628
112.24444,-0.431,-5.558,0.573
112.25412,-0.471,-5.281,0.582
112.2638,-0.51,-5.081,0.578
112.27348,-0.588,-5.081,0.578
112.28316,-0.745,-5.158,0.564
112.29284,-0.745,-5.376,0.446
112.30252,-0.745,-5.429,0.517
112.3122,-0.785,-5.404,0.601
112.321908,-0.863,-5.319,0.576
112.331616,-0.863,-5.172,0.642
112.341324,-0.981,-5.204,0.596
112.351032,-1.138,-5.46,0.471
112.36074,-1.177,-5.974,0.221
112.370448,-1.216,-6.687,-0.024
112.380156,-1.216,-7.587,-0.342
112.389864,-1.216,-8.412,-0.408
112.399572,-1.138,-8.801,-0.237
112.40928,-0.981,-8.569,-0.196
112.418988,-0.863,-8.176,-0.167
112.428696,-0.628,-8.38,-0.362
112.438404,-0.471,-8.955,-0.265
112.448112,-0.275,-9.992,-0.487
112.457824,0,-11.55,-0.682
112.467536,0.275,-13.118,-0.6
112.477248,0.314,-14.114,-0.378
112.48696,0.392,-14.2,-0.114
112.496672,0.275,-13.852,-0.053
112.506384,0.118,-14.284,-0.089
112.516096,0.157,-15.302,-0.189
112.525808,0,-15.849,0.432
112.53552,0,-14.863,1.163
112.545232,0.157,-13.777,1.554
112.554944,0.471,-13.588,1.388
112.564656,0.706,-14.536,1.34
112.574368,0.785,-15.599,1.272
112.58408,0.824,-16.115,1.261
112.593816,0.863,-16.197,1.048
112.603552,0.785,-16.124,0.861
112.613288,0.588,-15.815,0.916
112.623024,0.275,-15.275,1.011
112.63276,0.078,-14.488,1.07
112.642496,-0.196,-13.522,1.24
112.652232,-0.353,-12.536,1.295
112.661968,-0.471,-11.473,1.363
112.671704,-0.549,-10.403,1.392
112.68144,-0.588,-9.441,1.362
112.691176,-0.549,-8.635,1.306
112.700912,-0.51,-8.098,1.201
112.710648,-0.471,-7.749,1.024
112.720389,-0.471,-7.489,0.91
112.73013,-0.353,-7.199,0.842
112.739871,-0.235,-6.908,0.774
112.749612,-0.118,-6.597,0.589
112.759353,-0.039,-6.362,0.392
112.769094,0,-6.065,0.285
112.778835,0,-5.742,0.262
112.788576,0.039,-5.329,0.176
112.798317,0.078,-4.922,0.128
112.808058,0.039,-4.676,0.092
112.817799,0,-4.476,0.087
112.82754,0.039,-4.501,0.003
112.837281,0.118,-4.642,-0.102
112.847022,0.157,-4.938,-0.233
112.856744,0.235,-5.317,-0.34
112.866466,0.314,-5.64,-0.317
112.876188,0.471,-5.801,-0.306
112.88591,0.628,-5.833,-0.351
112.895632,0.588,-5.949,-0.372
112.905354,0.51,-6.106,-0.16
112.915076,0.471,-6.115,0.117
112.924798,0.314,-6.188,0.303
112.93452,0.118,-6.376,0.469
112.944242,0,-7.028,0.553
112.953964,-0.157,-8.164,0.671
112.963686,-0.353,-9.755,0.431
112.973408,-0.628,-11.914,0.249
112.98313,-1.098,-13.932,0.172
112.992865,-1.648,-15.525,0.17
113.0026,-2.236,-15.665,0.743
113.012335,-2.432,-14.831,1.209
113.02207,-2.55,-14.481,1.031
113.031805,-2.589,-15.943,0.057
113.04154,-2.511,-17.992,-0.066
113.051275,-2.942,-16.302,1.188
113.06101,-3.256,-14.281,1.704
113.070745,-3.138,-13.445,1.254
113.08048,-3.217,-14.213,1.318
113.090215,-3.373,-15.293,1.565
113.09995,-3.452,-15.668,1.659
113.109685,-3.373,-15.577,1.595
113.119425,-3.217,-15.352,1.675
113.129165,-3.099,-15.138,1.593
113.138905,-2.981,-14.84,1.486
113.148645,-2.864,-14.286,1.504
113.158385,-2.746,-13.591,1.627
113.168125,-2.55,-12.688,1.706
113.177865,-2.393,-11.625,1.774
113.187605,-2.157,-10.58,1.719
113.197345,-1.922,-9.612,1.651
113.207085,-1.726,-8.773,1.64
113.216825,-1.569,-8.16,1.549
113.226565,-1.412,-7.81,1.371
113.236305,-1.334,-7.667,1.237
113.246045,-1.255,-7.569,1.135
113.25577,-1.216,-7.324,1.099
113.265495,-1.138,-6.955,1.044
113.27522,-0.981,-6.581,0.951
113.284945,-0.824,-6.199,0.819
113.29467,-0.745,-5.863,0.719
113.304395,-0.706,-5.669,0.753
113.31412,-0.785,-5.483,0.826
113.323845,-0.902,-5.335,0.891
113.33357,-0.941,-5.174,0.88
113.343295,-0.902,-5.122,0.81
113.35302,-0.902,-5.249,0.628
113.362745,-0.824,-5.565,0.612
113.37247,-0.824,-5.733,0.662
113.382195,-0.824,-5.926,0.628
113.391899,-0.824,-6.113,0.555
113.401603,-0.902,-6.537,0.48
113.411307,-0.981,-6.91,0.335
113.421011,-1.059,-7.29,0.228
113.430715,-1.177,-7.535,0.265
113.440419,-1.294,-7.594,0.374
113.450123,-1.255,-7.601,0.412
113.459827,-1.177,-7.73,0.469
113.469531,-1.098,-8.13,0.478
113.479235,-0.981,-8.923,0.458
113.488939,-0.902,-10.096,0.331
113.498643,-0.785,-11.668,0.213
113.508347,-0.706,-13.05,0.368
113.518051,-0.588,-14.043,0.352
113.527764,-0.392,-14.763,0.145
113.537477,-0.196,-15.125,0.161
113.54719,0.039,-14.979,0.466
113.556903,0,-14.561,0.579
113.566616,-0.078,-14.486,0.831
113.576329,-0.157,-14.554,1.218
113.586042,-0.118,-14.25,1.749
113.595755,-0.118,-14.065,2.061
113.605468,-0.118,-14.234,2.111
113.615181,-0.039,-14.615,2.243
113.624894,0.196,-14.988,2.097
113.634607,0.471,-15.308,1.881
113.64432,0.667,-15.429,1.661
113.654028,0.706,-15.293,1.565
113.663736,0.706,-14.84,1.486
113.673444,0.745,-14.181,1.363
113.683152,0.588,-13.354,1.19
113.69286,0.392,-12.504,1.34
113.702568,0.235,-11.525,1.433
113.712276,0.078,-10.553,1.565
113.721984,0.078,-10.553,1.565
113.731692,0,-9.662,1.483
113.7414,-0.078,-9.048,1.392
113.751108,-0.118,-8.564,1.358
113.760816,-0.157,-8.196,1.303
113.770524,-0.196,-7.86,1.203
113.780232,-0.196,-7.717,1.069
113.789883,-0.157,-7.644,0.883
113.799534,-0.235,-7.469,0.794
113.809185,-0.235,-7.192,0.803
113.818836,-0.235,-6.887,0.658
113.828487,-0.275,-6.59,0.551
113.838138,-0.275,-6.447,0.417
113.847789,-0.314,-6.408,0.424
113.85744,-0.275,-6.183,0.503
113.867091,-0.275,-5.803,0.61
113.876742,-0.275,-5.372,0.646
113.886393,-0.235,-5.017,0.669
113.896044,-0.118,-4.747,0.716
113.905695,-0.078,-4.74,0.678
113.915346,0.039,-5.151,0.526
113.924997,0.118,-5.667,0.514
113.934591,0.196,-6.003,0.614
113.944185,0.118,-6.069,0.762
113.953779,0.118,-5.792,0.771
113.963373,0.078,-5.61,0.644
113.972967,0.118,-5.642,0.598
113.982561,0.118,-5.849,0.642
113.992155,0.157,-6.062,0.723
114.001749,0.157,-6.315,0.798
114.011343,0,-6.926,0.651
114.020937,-0.235,-7.958,0.628
114.030531,-0.549,-9.387,0.376
114.040125,-0.785,-11.537,-0.082
114.049719,-1.059,-13.689,-0.303
114.059313,-1.569,-14.897,0.002
114.068884,-2.04,-14.477,0.554
114.078455,-2.432,-13.675,0.974
114.088026,-2.785,-12.975,1.297
114.097597,-3.06,-13.448,0.815
114.107168,-2.628,-16.381,-0.618
114.116739,-2.55,-17.988,0.134
114.12631,-2.864,-16.088,1.107
114.135881,-2.707,-14.381,1.368
114.145452,-2.354,-13.875,0.979
114.155023,-2.236,-15.072,0.768
114.164594,-2.314,-16.227,0.763
114.174165,-2.432,-16.324,0.866
114.183736,-2.471,-16.143,0.738
114.193283,-2.511,-15.813,0.677
114.20283,-2.471,-15.493,0.893
114.212377,-2.471,-14.85,1.086
114.221924,-2.471,-14.038,1.229
114.231471,-2.354,-13.266,1.365
114.241018,-2.236,-12.37,1.483
114.250565,-2.079,-11.384,1.538
114.260112,-1.804,-10.423,1.508
114.269659,-1.569,-9.494,1.433
114.279206,-1.334,-8.719,1.331
114.288753,-1.098,-8.26,1.212
114.2983,-0.941,-8.014,1.176
114.307847,-0.863,-7.814,1.171
114.317394,-0.785,-7.53,1.142
114.326923,-0.785,-7.162,1.087
114.336452,-0.706,-6.678,1.053
114.345981,-0.588,-6.226,0.973
114.35551,-0.588,-5.967,0.86
114.365039,-0.667,-5.69,0.869
114.374568,-0.785,-5.483,0.826
114.384097,-0.785,-5.354,0.769
114.393626,-0.863,-5.269,0.744
114.403155,-0.941,-5.154,0.764
114.412684,-1.02,-5.063,0.701
114.422213,-1.059,-5.151,0.526
114.431742,-1.098,-5.324,0.376
114.441271,-1.098,-5.549,0.296
114.4508,-1.138,-5.729,0.185
114.46035,-1.138,-5.726,-0.054
114.4699,-1.177,-5.797,-0.106
114.47945,-1.138,-5.976,-0.217
114.489,-1.138,-6.356,-0.324
114.49855,-1.138,-6.647,-0.256
114.5081,-1.02,-6.744,-0.154
114.51765,-0.902,-6.578,0.035
114.5272,-0.824,-6.733,0.008
114.53675,-0.785,-7.344,-0.14
114.5463,-0.628,-8.708,-0.54
114.55585,-0.392,-10.716,-0.894
114.5654,-0.275,-12.671,-0.88
114.57495,0,-14.109,-0.855
114.584515,0.275,-14.954,-0.805
114.59408,0.314,-14.695,-0.241
114.603645,0.275,-13.879,0.102
114.61321,0.353,-13.961,-0.112
114.622775,0.431,-15.806,-0.716
114.63234,0.118,-17.136,0.046
114.641905,0,-15.784,0.961
114.65147,0.275,-14.379,1.129
114.661035,0.431,-13.675,0.974
114.6706,0.392,-14.57,0.856
114.680165,0.392,-16.104,0.745
114.68973,0.471,-16.995,0.827
114.699295,0.667,-16.949,0.795
114.70886,0.785,-16.381,0.736
114.718439,0.863,-15.756,0.807
114.728018,0.941,-14.952,0.988
114.737597,0.824,-14.154,1.209
114.747176,0.785,-13.445,1.254
114.756755,0.628,-12.711,1.383
114.766334,0.392,-11.873,1.372
114.775913,0.275,-11.08,1.392
114.785492,0.157,-10.287,1.413
114.795071,0.078,-9.55,1.303
114.80465,0.039,-8.828,1.271
114.814229,-0.039,-8.292,1.167
114.823808,-0.078,-7.878,1.08
114.833387,-0.118,-7.549,1.019
114.842966,-0.078,-7.296,0.944
114.85259,-0.118,-7.044,0.869
114.862214,-0.118,-6.746,0.762
114.871838,-0.078,-6.494,0.687
114.881462,-0.039,-6.337,0.476
114.891086,0,-6.29,0.205
114.90071,0.039,-6.238,0.135
114.910334,0.039,-5.96,0.144
114.919958,0.078,-5.554,0.096
114.929582,0.196,-5.031,0.069
114.939206,0.314,-4.599,0.105
114.94883,0.471,-4.445,0.132
114.958454,0.471,-4.49,0.164
114.968078,0.51,-4.581,0.228
114.977723,0.549,-4.767,0.155
114.987368,0.51,-4.96,0.121
114.997013,0.471,-4.992,0.076
115.006658,0.51,-4.954,0.082
115.016303,0.51,-4.831,0.064
115.025948,0.628,-4.824,0.026
115.035593,0.51,-4.983,-0.202
115.045238,0.353,-5.363,-0.308
115.054883,0.275,-6.085,-0.276
115.064528,0.196,-6.917,-0.304
115.074173,0.157,-8.185,-0.567
115.083818,0,-10.142,-0.992
115.093463,-0.196,-12.609,-1.228
115.103108,-0.785,-13.957,-0.589
115.112758,-1.53,-13.723,-0.109
115.122408,-2.079,-12.989,0.02
115.132058,-2.55,-12.541,0.418
115.141708,-3.02,-12.341,1.09
115.151358,-3.413,-13.427,0.699
115.161008,-3.373,-16.677,-0.75
115.170658,-3.53,-18.569,0.271
115.180308,-4.08,-17.135,1.4
115.189958,-4.511,-15.59,1.672
115.199608,-4.276,-15.097,1.361
115.209258,-4.119,-16.238,1.279
115.218908,-3.923,-17.558,1.086
115.228558,-3.844,-18.015,0.966
115.238208,-3.844,-17.879,0.871
115.247887,-3.805,-17.163,0.877
115.257566,-3.648,-16.397,1.052
115.267245,-3.334,-15.534,1.125
115.276924,-3.138,-14.575,1.334
115.286603,-2.824,-13.557,1.433
115.296282,-2.55,-12.409,1.476
115.305961,-2.236,-11.339,1.506
115.31564,-1.961,-10.441,1.385
115.325319,-1.726,-9.834,1.333
115.334998,-1.491,-9.387,1.053
115.344677,-1.294,-9.019,0.999
115.354356,-1.177,-8.644,0.906
115.364035,-1.02,-8.23,0.819
115.373763,-0.863,-7.828,0.571
115.383491,-0.745,-7.421,0.524
115.393219,-0.667,-7.008,0.437
115.402947,-0.549,-6.581,0.274
115.412675,-0.471,-6.206,0.18
115.422403,-0.471,-5.838,0.126
115.432131,-0.471,-5.554,0.096
115.441859,-0.51,-5.347,0.053
115.451587,-0.51,-5.288,-0.056
115.461315,-0.549,-5.204,-0.081
115.471043,-0.588,-5.108,0.055
115.480771,-0.706,-4.865,0.257
115.490499,-0.824,-4.513,0.519
115.500246,-1.098,-4.263,0.682
115.509993,-1.177,-4.365,0.585
115.51974,-1.216,-4.995,0.314
115.529487,-1.098,-5.947,0.067
115.539234,-1.177,-6.881,-0.058
115.548981,-1.216,-7.519,-0.051
115.558728,-1.216,-7.674,-0.078
115.568475,-1.177,-7.621,-0.149
115.578222,-1.216,-7.724,-0.247
115.587969,-1.294,-8.078,-0.269
115.597716,-1.334,-8.401,-0.247
115.607463,-1.216,-8.544,-0.112
115.61721,-1.138,-8.301,0.09
115.626957,-0.981,-7.967,0.228
115.636715,-0.824,-8.083,0.208
115.646473,-0.706,-8.848,0.033
115.656231,-0.549,-10.66,-0.764
115.665989,-0.314,-13.137,-1.4
115.675747,-0.275,-14.816,-1.139
115.685505,-0.392,-15.05,-0.941
115.695263,-0.314,-14.393,-0.825
115.705021,-0.235,-13.325,-0.557
115.714779,-0.118,-12.918,-0.605
115.724537,-0.078,-13.473,-0.623
115.734295,-0.157,-14.723,-0.764
115.744053,-0.275,-15.945,-0.382
115.753811,-0.392,-15.527,0.409
115.763569,-0.471,-14.918,0.795
115.773353,-0.392,-14.918,0.795
115.783137,-0.314,-15.293,0.888
115.792921,-0.314,-15.731,0.891
115.802705,-0.275,-15.763,0.845
115.812489,-0.314,-15.402,0.829
115.822273,-0.235,-14.872,0.763
115.832057,-0.235,-14.272,0.75
115.841841,-0.196,-13.757,0.761
115.851625,-0.196,-13.234,0.734
115.861409,-0.157,-12.602,0.765
115.871193,-0.196,-11.746,0.876
115.880977,-0.157,-10.78,1.047
115.890761,-0.078,-9.832,1.094
115.90055,0,-8.93,1.174
115.910339,0.078,-8.162,1.11
115.920128,0.078,-7.587,1.012
115.929917,0.157,-7.121,0.855
115.939706,0.118,-6.612,0.905
115.949495,0.118,-6.251,0.889
115.959284,0.078,-5.883,0.835
115.969073,0.039,-5.669,0.753
115.978862,0.039,-5.494,0.664
115.988651,0.039,-5.397,0.562
115.99844,0.039,-5.235,0.551
116.008229,0,-4.965,0.598
116.018018,-0.039,-4.501,0.68
116.027807,0,-4.024,0.685
116.037588,-0.078,-3.677,0.746
116.047369,-0.078,-3.399,0.755
116.05715,-0.039,-3.456,0.625
116.066931,0,-3.927,0.582
116.076712,0.039,-4.424,0.694
116.086493,0.078,-4.81,0.626
116.096274,0.118,-5.131,0.41
116.106055,0.275,-5.581,0.251
116.115836,0.314,-5.922,0.151
116.125617,0.314,-6.192,0.103
116.135398,0.353,-6.392,0.108
116.145179,0.314,-6.426,0.301
116.15496,0.314,-6.601,0.389
116.164741,0.196,-7.603,-0.026
116.1745,0.039,-9.637,-0.464
116.184259,-0.157,-12.062,-0.494
116.194018,-0.745,-14.254,-0.482
116.203777,-1.608,-15.295,-0.227
116.213536,-2.04,-14.918,0.118
116.223295,-2.314,-13.741,0.445
116.233054,-2.589,-13.345,0.236
116.242813,-2.628,-15.432,-0.809
116.252572,-2.55,-17.858,-0.6
116.262331,-2.981,-16.961,0.634
116.27209,-3.53,-15.463,1.177
116.281849,-3.57,-14.965,1.066
116.291608,-3.609,-15.881,1.063
116.301367,-3.727,-17.233,0.825
116.31113,-3.687,-18.049,0.482
116.320893,-3.373,-18.36,-0.011
116.330656,-2.942,-18.215,-0.384
116.340419,-2.667,-17.306,-0.343
116.350182,-2.471,-15.961,-0.066
116.359945,-2.314,-14.518,0.109
116.369708,-2.314,-13.12,0.315
116.379471,-2.314,-11.902,0.411
116.389234,-2.354,-10.989,0.651
116.398997,-2.275,-10.146,0.84
116.40876,-2.079,-9.398,0.892
116.418523,-1.844,-8.882,0.903
116.428286,-1.569,-8.489,0.933
116.438024,-1.334,-8.171,0.71
116.447762,-1.138,-7.964,0.667
116.4575,-1.02,-7.842,0.649
116.467238,-0.981,-7.778,0.74
116.476976,-0.981,-7.489,0.91
116.486714,-0.941,-6.987,0.999
116.496452,-0.824,-6.31,0.998
116.50619,-0.706,-5.742,0.939
116.515928,-0.628,-5.272,0.982
116.525666,-0.628,-4.917,1.005
116.535404,-0.667,-4.769,1.071
116.545142,-0.628,-4.744,1.155
116.55488,-0.628,-4.765,1.271
116.564618,-0.706,-4.81,1.303
116.574351,-0.785,-4.86,1.135
116.584084,-0.824,-5.11,0.971
116.593817,-0.941,-5.535,0.896
116.60355,-0.981,-6.101,0.717
116.613283,-1.02,-6.628,0.544
116.623016,-1.059,-7.156,0.371
116.632749,-1.098,-7.426,0.324
116.642482,-1.177,-7.24,0.396
116.652215,-1.255,-6.762,0.401
116.661948,-1.216,-6.292,0.444
116.671681,-1.177,-6.219,0.258
116.681414,-1.177,-6.94,0.051
116.691147,-1.059,-8.369,-0.201
116.700847,-0.941,-10.357,-0.671
116.710547,-0.941,-12.5,-1.169
116.720247,-0.981,-13.984,-1.111
116.729947,-0.863,-14.202,-0.552
116.739647,-0.628,-14.018,-0.241
116.749347,-0.431,-14.495,-0.246
116.759047,-0.392,-16.347,-0.811
116.768747,-0.275,-17.147,-0.116
116.778447,-0.118,-15.87,0.548
116.788147,0.118,-14.838,0.57
116.797847,0.196,-14.686,0.159
116.807547,0.157,-15.643,-0.289
116.817247,0.275,-17.006,-0.688
116.826947,0.392,-17.652,-0.643
116.836634,0.628,-17.561,-0.707
116.846321,0.941,-17.127,-0.909
116.856008,1.059,-16.488,-0.916
116.865695,0.941,-15.425,-0.848
116.875382,0.785,-14.277,-0.805
116.885069,0.667,-13.316,-0.834
116.894756,0.51,-12.568,-0.782
116.904443,0.392,-11.859,-0.737
116.91413,0.157,-11.203,-0.621
116.923817,0.039,-10.585,-0.512
116.933504,-0.039,-9.998,-0.449
116.943191,-0.118,-9.303,-0.326
116.952878,-0.118,-8.664,-0.333
116.962536,-0.078,-8.135,-0.399
116.972194,-0.039,-7.735,-0.408
116.981852,0.039,-7.528,-0.451
116.99151,0.118,-7.36,-0.501
117.001168,0.118,-7.16,-0.506
117.010826,0.196,-6.799,-0.522
117.020484,0.275,-6.469,-0.583
117.030142,0.314,-6.179,-0.651
117.0398,0.314,-5.976,-0.894
117.049458,0.392,-6.026,-1.063
117.059116,0.392,-6.047,-0.947
117.068774,0.392,-5.835,-0.79
117.078432,0.549,-5.404,-0.754
117.08809,0.588,-5.056,-0.692
117.097756,0.588,-4.715,-0.592
117.107422,0.628,-4.431,-0.622
117.117088,0.706,-4.456,-0.706
117.126754,0.706,-4.727,-0.754
117.13642,0.745,-5.147,-0.629
117.146086,0.824,-5.342,-0.424
117.155752,0.863,-5.288,-0.056
117.165418,0.941,-5.135,0.21
117.175084,1.02,-5.02,0.23
117.18475,1.059,-5.315,0.098
117.194416,1.098,-5.881,-0.081
117.204082,1.138,-6.601,-0.288
117.213748,1.138,-7.303,-0.372
117.2234,1.138,-7.728,-0.447
117.233052,1.02,-7.685,-0.24
117.242704,0.785,-7.428,-0.115
117.252356,0.588,-7.844,-0.467
117.262008,0.275,-9.103,-1.008
117.27166,-0.275,-10.857,-0.998
117.281312,-1.059,-12.441,-0.6
117.290964,-1.804,-13.523,-0.114
117.300616,-2.275,-13.27,0.488
117.310268,-2.511,-12.352,0.929
117.31992,-2.667,-12.018,1.067
117.329572,-2.981,-13.393,0.506
117.339224,-2.746,-16.697,-0.634
117.348876,-3.099,-18.765,1.152
117.358512,-3.687,-17.092,2.284
117.368148,-3.727,-15.886,2.218
117.377784,-3.648,-15.113,2.354
117.38742,-3.57,-15.663,2.536
117.397056,-3.373,-16.585,2.572
117.406692,-3.138,-16.754,2.622
117.416328,-3.06,-16.667,2.359
117.425964,-2.903,-16.286,2.227
117.4356,-2.785,-15.777,2.277
117.445236,-2.628,-14.97,2.22
117.454872,-2.55,-13.934,2.442
117.464508,-2.354,-12.92,2.342
117.474144,-2.157,-11.952,2.274
117.48378,-2.04,-11.152,2.256
117.493442,-1.883,-10.525,2.087
117.503104,-1.648,-9.88,2.042
117.512766,-1.412,-9.316,1.783
117.522428,-1.216,-8.889,1.619
117.53209,-1.059,-8.462,1.455
117.541752,-0.941,-7.964,1.344
117.551414,-0.824,-7.512,1.264
117.561076,-0.706,-7.169,1.126
117.570738,-0.667,-6.955,1.044
117.5804,-0.667,-6.742,0.962
117.590062,-0.745,-6.567,0.873
117.599724,-0.785,-6.353,0.792
117.609386,-0.863,-6.101,0.717
117.619052,-0.981,-5.701,0.707
117.628718,-1.02,-5.335,0.891
117.638384,-1.177,-4.938,1.121
117.64805,-1.098,-4.501,1.357
117.657716,-1.177,-4.167,1.496
117.667382,-1.216,-4.083,1.471
117.677048,-1.255,-4.276,1.437
117.686714,-1.255,-4.856,1.335
117.69638,-1.255,-5.544,1.173
117.706046,-1.294,-6.119,1.271
117.715712,-1.334,-6.474,1.248
117.725378,-1.294,-6.608,1.105
117.735044,-1.334,-6.826,0.987
117.74471,-1.334,-7.29,0.905
117.75439,-1.334,-7.953,0.828
117.76407,-1.255,-8.546,0.803
117.77375,-1.294,-8.967,0.928
117.78343,-1.373,-9.398,0.892
117.79311,-1.294,-10.048,0.738
117.80279,-1.255,-11.168,0.54
117.81247,-1.138,-12.92,0.311
117.82215,-1.098,-14.407,0.606
117.83183,-1.216,-14.9,0.918
117.84151,-1.177,-14.345,0.936
117.85119,-1.098,-13.591,0.949
117.86087,-1.138,-13.295,1.081
117.87055,-1.098,-13.62,1.343
117.88023,-1.02,-14.595,1.45
117.889912,-0.628,-15.906,1.656
117.899594,-0.628,-15.436,2.377
117.909276,-0.745,-14.374,2.683
117.918958,-0.588,-13.984,2.274
117.92864,-0.431,-14.356,2.129
117.938322,-0.353,-14.936,2.027
117.948004,-0.235,-15.218,1.818
117.957686,-0.157,-15.068,1.645
117.967368,-0.157,-14.834,1.447
117.97705,-0.157,-14.42,1.361
117.986732,-0.275,-13.743,1.361
117.996414,-0.431,-12.725,1.461
118.006096,-0.549,-11.598,1.62
118.015778,-0.667,-10.373,1.676
118.025484,-0.785,-9.341,1.699
118.03519,-0.863,-8.587,1.712
118.044896,-0.902,-8.18,1.664
118.054602,-0.902,-7.858,1.642
118.064308,-0.902,-7.567,1.574
118.074014,-0.941,-7.199,1.519
118.08372,-0.863,-6.81,1.348
118.093426,-0.824,-6.576,1.151
118.103132,-0.785,-6.394,1.023
118.112838,-0.785,-6.142,0.948
118.122544,-0.785,-5.844,0.842
118.13225,-0.706,-5.553,0.773
118.141956,-0.706,-5.301,0.698
118.151677,-0.706,-5.108,0.732
118.161398,-0.667,-4.901,0.689
118.171119,-0.667,-4.829,0.503
118.18084,-0.628,-4.938,0.444
118.190561,-0.628,-5.092,0.417
118.200282,-0.745,-5.19,0.519
118.210003,-0.824,-5.088,0.617
118.219724,-0.785,-4.958,0.56
118.229445,-0.785,-5.022,0.469
118.239166,-0.785,-5.285,0.382
118.248887,-0.824,-5.685,0.392
118.258608,-0.824,-6.015,0.453
118.268329,-0.785,-6.144,0.51
118.27805,-0.863,-6.197,0.58
118.287775,-1.02,-6.487,0.649
118.2975,-1.177,-7.433,0.362
118.307225,-1.255,-8.935,0.297
118.31695,-1.53,-10.675,0.229
118.326675,-1.726,-12.493,0.147
118.3364,-1.844,-13.886,0.141
118.346125,-1.961,-14.725,0.152
118.35585,-1.961,-15.395,0.113
118.365575,-2.157,-15.445,0.622
118.3753,-2.354,-14.711,1.429
118.385025,-2.432,-13.654,2.213
118.39475,-2.55,-12.904,2.704
118.404475,-2.628,-13.336,2.667
118.4142,-2.824,-14.579,2.488
118.423952,-2.942,-16.213,2.041
118.433704,-3.099,-17.338,1.643
118.443456,-3.53,-17.349,1.482
118.453208,-3.295,-16.895,1.164
118.46296,-2.981,-16.106,0.984
118.472712,-2.628,-15.04,0.813
118.482464,-2.236,-13.845,0.586
118.492216,-1.922,-12.67,0.474
118.501968,-1.765,-11.573,0.349
118.51172,-1.726,-10.703,0.383
118.521472,-1.765,-9.898,0.565
118.531224,-1.804,-9.235,0.642
118.540976,-1.804,-8.648,0.706
118.550744,-1.765,-8.019,0.976
118.560512,-1.765,-7.478,1.071
118.57028,-1.765,-7.099,1.178
118.580048,-1.765,-6.951,1.244
118.589816,-1.804,-7.021,1.192
118.599584,-1.804,-7.233,1.035
118.609352,-1.765,-7.476,0.833
118.61912,-1.687,-7.596,0.612
118.628888,-1.569,-7.626,0.328
118.638656,-1.53,-7.642,-0.033
118.648424,-1.451,-7.671,-0.317
118.658192,-1.373,-7.715,-0.524
118.66796,-1.334,-7.642,-0.71
118.677728,-1.216,-7.397,-0.747
118.687499,-1.138,-7.074,-0.769
118.69727,-1.098,-6.674,-0.778
118.707041,-1.02,-6.447,-0.938
118.716812,-1.098,-6.349,-1.04
118.726583,-1.098,-6.663,-1.294
118.736354,-1.138,-7.44,-1.631
118.746125,-1.177,-8.642,-2.042
118.755896,-1.255,-9.951,-2.073
118.765667,-1.334,-11.087,-1.955
118.775438,-1.373,-11.766,-1.716
118.785209,-1.373,-12.116,-1.539
118.79498,-1.138,-13.037,-1.741
118.804751,-1.216,-16.077,-2.795
118.814522,-1.53,-18.104,-1.918
118.82427,-1.373,-17.47,-0.77
118.834018,-0.863,-16.034,-0.557
118.843766,-0.628,-14.543,-0.652
118.853514,-0.431,-13.948,-0.866
118.863262,-0.196,-14.209,-1.191
118.87301,-0.078,-14.245,-1.436
118.882758,-0.039,-14.018,-1.595
118.892506,-0.196,-13.693,-1.857
118.902254,-0.157,-13.621,-2.043
118.912002,-0.196,-13.393,-2.202
118.92175,-0.078,-13.096,-2.309
118.931498,-0.118,-12.569,-2.137
118.941246,-0.157,-11.571,-1.921
118.950994,-0.196,-10.489,-1.73
118.960726,-0.235,-9.33,-1.526
118.970458,-0.275,-8.183,-1.483
118.98019,-0.235,-7.183,-1.506
118.989922,-0.235,-6.474,-1.46
118.999654,-0.235,-6.158,-1.444
119.009386,-0.235,-6.088,-1.392
119.019118,-0.235,-6.147,-1.283
119.02885,-0.196,-6.16,-1.206
119.038582,-0.118,-6.122,-1.199
119.048314,-0.039,-6.07,-1.269
119.058046,-0.039,-5.94,-1.326
119.067778,-0.039,-5.838,-1.229
119.07751,0,-5.62,-1.11
119.087242,0,-5.376,-0.908
119.096939,0.039,-5.211,-0.72
119.106636,0.118,-5.154,-0.59
119.116333,0.118,-5.167,-0.513
119.12603,0.196,-5.276,-0.572
119.135727,0.196,-5.522,-0.536
119.145424,0.275,-5.722,-0.531
119.155121,0.353,-5.831,-0.59
119.164818,0.353,-6.165,-0.729
119.174515,0.353,-6.64,-0.972
119.184212,0.353,-7.04,-0.962
119.193909,0.392,-7.144,-0.822
119.203606,0.392,-6.881,-0.735
119.213303,0.431,-6.347,-0.601
119.223,0.314,-5.545,-0.181
119.232681,0.235,-4.708,0.046
119.242362,0.275,-4.327,-0.086
119.252043,0.078,-4.961,-0.556
119.261724,-0.235,-6.504,-1.067
119.271405,-0.628,-8.487,-1.337
119.281086,-1.059,-10.442,-1.323
119.290767,-1.53,-11.862,-1.175
119.300448,-1.961,-12.498,-0.73
119.310129,-2.275,-12.105,-0.023
119.31981,-2.628,-11.734,0.361
119.329491,-2.824,-12.768,-0.1
119.339172,-2.903,-15.418,-0.886
119.348853,-3.609,-17.049,0.459
119.358545,-4.236,-16.09,1.345
119.368237,-4.08,-15.854,0.909
119.377929,-4.04,-16.354,0.582
119.387621,-4.158,-17.292,0.934
119.397313,-4.08,-17.385,1.236
119.407005,-3.962,-16.747,1.229
119.416697,-3.805,-15.915,1.257
119.426389,-3.648,-14.909,1.195
119.436081,-3.295,-14.184,0.925
119.445773,-2.903,-13.568,0.595
119.455465,-2.589,-13.134,0.393
119.465157,-2.236,-12.636,0.281
119.474849,-1.883,-11.896,0.372
119.484527,-1.608,-11.019,0.367
119.494205,-1.177,-9.98,0.351
119.503883,-1.02,-8.942,0.335
119.513561,-0.785,-8.314,0.167
119.523239,-0.628,-8.146,0.117
119.532917,-0.745,-8.314,0.167
119.542595,-1.02,-8.437,0.185
119.552273,-1.373,-8.36,0.199
119.561951,-1.687,-8.128,0.24
119.571629,-1.922,-7.826,0.333
119.581307,-2.079,-7.369,0.453
119.590985,-2.118,-6.951,0.567
119.600663,-2.079,-6.758,0.601
119.610341,-1.883,-6.887,0.658
119.620029,-1.804,-7.108,0.778
119.629717,-1.608,-7.526,0.665
119.639405,-1.412,-8.092,0.485
119.649093,-1.216,-8.703,0.338
119.658781,-1.059,-9.43,0.169
119.668469,-0.981,-10.164,0.04
119.678157,-0.941,-10.712,-0.017
119.687845,-0.824,-11.073,-0.001
119.697533,-0.785,-11.568,-0.128
119.707221,-0.941,-11.848,0.102
119.716909,-1.216,-11.684,0.529
119.726597,-1.334,-11.357,0.706
119.736285,-1.334,-11.684,0.529
119.745959,-1.177,-12.393,0.483
119.755633,-1.059,-13.195,0.74
119.765307,-0.941,-13.65,1.059
119.774981,-0.824,-13.891,1.295
119.784655,-0.706,-13.95,1.404
119.794329,-0.628,-13.97,1.52
119.804003,-0.549,-14.106,1.615
119.813677,-0.667,-14.256,1.788
119.823351,-0.785,-14.02,2.029
119.833025,-0.824,-13.416,2.215
119.842699,-0.785,-12.552,2.288
119.852373,-0.706,-11.552,2.265
119.862047,-0.667,-10.564,2.081
119.871721,-0.667,-9.6,1.812
119.881402,-0.667,-8.676,1.537
119.891083,-0.706,-7.964,1.344
119.900764,-0.745,-7.414,1.162
119.910445,-0.745,-6.994,1.037
119.920126,-0.824,-6.703,0.969
119.929807,-0.902,-6.556,1.035
119.939488,-0.902,-6.376,1.146
119.949169,-0.941,-6.287,1.321
119.95885,-0.941,-6.262,1.405
119.968531,-0.941,-6.385,1.423
119.978212,-0.941,-6.715,1.485
119.987893,-0.941,-7.064,1.662
119.997574,-0.902,-7.319,1.976
120.007244,-0.902,-7.567,2.251
120.016914,-0.824,-7.776,2.532
120.026584,-0.628,-7.837,2.88
120.036254,-0.628,-8.064,3.039
120.045924,-0.588,-8.562,3.151
120.055594,-0.628,-9.225,3.073
120.065264,-0.745,-9.857,3.042
120.074934,-0.902,-10.425,3.101
120.084604,-1.098,-10.982,3.321
120.094274,-1.294,-11.468,3.594
120.103944,-1.569,-11.754,3.862
120.113614,-1.844,-11.936,3.99
120.123284,-1.961,-12.375,3.992
120.132954,-2.001,-13.64,3.49
120.142634,-1.687,-15.399,3.299
120.152314,-2.04,-14.974,4.051
120.161994,-2.471,-13.577,4.258
120.171674,-2.707,-12.602,4.151
120.181354,-2.628,-12.543,4.042
120.191034,-2.55,-12.72,4.369
120.200714,-2.667,-11.775,4.655
120.210394,-2.903,-10.311,4.714
120.220074,-2.942,-9.166,4.319
120.229754,-2.707,-9.027,3.985
120.239434,-2.628,-9.639,3.837
120.249114,-2.746,-10.098,3.955
120.258794,-2.864,-10.136,3.948
120.268464,-2.667,-9.909,3.789
120.278134,-2.589,-9.857,3.719
120.287804,-2.471,-9.914,3.589
120.297474,-2.314,-9.925,3.428
120.307144,-2.197,-10.007,3.214
120.316814,-2.118,-10.173,3.026
120.326484,-2.079,-10.507,2.887
120.336154,-2.118,-10.764,2.762
120.345824,-2.118,-10.855,2.826
120.355494,-2.079,-10.661,2.86
120.365164,-2.04,-10.293,2.805
120.374834,-1.883,-9.834,2.687
120.384504,-1.726,-9.4,2.485
120.394174,-1.608,-9.057,2.346
120.403852,-1.53,-8.85,2.303
120.41353,-1.412,-8.616,2.105
120.423208,-1.255,-8.305,1.921
120.432886,-1.02,-7.98,1.66
120.442564,-0.824,-7.648,1.36
120.452242,-0.706,-7.408,1.124
120.46192,-0.667,-7.303,0.983
120.471598,-0.628,-7.367,0.892
120.481276,-0.706,-7.483,0.871
120.490954,-0.785,-7.651,0.921
120.500632,-0.863,-7.808,1.133
120.51031,-0.981,-7.873,1.28
120.519988,-1.098,-7.862,1.442
120.529651,-1.255,-7.833,1.726
120.539314,-1.373,-7.905,1.912
120.548977,-1.451,-8.164,2.026
120.55864,-1.451,-8.364,2.03
120.568303,-1.491,-8.662,2.137
120.577966,-1.53,-8.862,2.142
120.587629,-1.608,-9.069,2.185
120.597292,-1.648,-9.378,2.13
120.606955,-1.726,-9.789,1.978
120.616618,-1.804,-10.193,1.787
120.626281,-1.883,-10.482,1.617
120.635944,-1.883,-10.655,1.467
120.645607,-1.804,-10.73,1.215
120.65527,-1.687,-11.009,0.767
120.664942,-1.451,-12.221,-0.044
120.674614,-1.373,-13.786,-0.2
120.684286,-1.491,-13.838,0.547
120.693958,-1.373,-12.355,1.167
120.70363,-1.216,-10.462,1.501
120.713302,-1.098,-8.871,1.742
120.722974,-0.863,-8.33,1.837
120.732646,-0.745,-8.616,2.105
120.742318,-0.628,-9.173,2.326
120.75199,-0.51,-9.809,2.094
120.761662,-0.314,-10.562,1.842
120.771334,-0.118,-11.314,1.59
120.781006,-0.039,-11.686,1.445
120.790665,-0.157,-11.814,1.263
120.800324,-0.275,-11.934,1.042
120.809983,-0.314,-12.121,0.97
120.819642,-0.353,-11.843,0.979
120.829301,-0.392,-11.225,1.088
120.83896,-0.471,-10.453,1.224
120.848619,-0.51,-9.873,1.326
120.858278,-0.549,-9.371,1.415
120.867937,-0.628,-9.062,1.469
120.877596,-0.785,-9.005,1.599
120.887255,-0.863,-9.05,1.631
120.896914,-1.02,-9.128,1.617
120.906573,-1.098,-9.166,1.61
120.916232,-1.098,-9.191,1.526
120.925925,-1.138,-9.139,1.456
120.935618,-1.138,-8.926,1.374
120.945311,-1.138,-8.673,1.299
120.955004,-1.098,-8.407,1.146
120.964697,-1.02,-8.071,1.046
120.97439,-0.981,-7.787,1.017
120.984083,-0.902,-7.426,1.001
120.993776,-0.824,-6.949,1.005
121.003469,-0.785,-6.401,1.062
121.013162,-0.745,-5.924,1.067
121.022855,-0.706,-5.653,1.114
121.032548,-0.667,-5.435,1.232
121.042241,-0.667,-5.256,1.344
121.051942,-0.549,-4.856,1.335
121.061643,-0.431,-4.604,1.26
121.071344,-0.353,-4.549,0.95
121.081045,-0.314,-4.842,0.58
121.090746,-0.314,-5.349,0.292
121.100447,-0.235,-6.217,0.019
121.110148,-0.118,-7.194,-0.313
121.119849,-0.039,-8.11,-0.315
121.12955,-0.235,-8.487,0.017
121.139251,-0.353,-8.405,0.231
121.148952,-0.431,-7.955,0.39
121.158653,-0.51,-7.39,0.569
121.168354,-0.51,-7.094,0.701
121.178055,-0.471,-7.39,0.569
121.187754,-0.431,-7.917,0.396
121.197453,-0.471,-8.439,0.424
121.207152,-0.431,-9.167,0.256
121.216851,-0.549,-10.235,-0.012
121.22655,-0.745,-11.605,-0.373
121.236249,-0.941,-12.973,-0.296
121.245948,-1.373,-13.639,-0.134
121.255647,-1.804,-13.389,0.029
121.265346,-2.236,-12.952,0.265
121.275045,-2.628,-12.768,0.577
121.284744,-2.942,-12.982,0.659
121.294443,-3.02,-14.138,0.216
121.304142,-2.942,-15.743,0.052
121.313841,-3.334,-15.306,0.966
121.323531,-3.687,-14.529,1.302
121.333221,-4.001,-14.45,1.077
121.342911,-4.315,-14.997,1.02
121.352601,-4.472,-15.724,0.852
121.362291,-4.55,-15.897,0.702
121.371981,-4.707,-15.743,0.729
121.381671,-4.707,-15.406,0.629
121.391361,-4.55,-14.968,0.627
121.401051,-4.354,-14.245,0.595
121.410741,-4.158,-13.382,0.668
121.420431,-3.923,-12.518,0.74
121.430121,-3.727,-11.546,0.872
121.439811,-3.53,-10.541,1.049
121.449501,-3.295,-9.755,1.108
121.459207,-3.06,-9.323,1.144
121.468913,-2.903,-9.053,1.192
121.478619,-2.667,-8.853,1.187
121.488325,-2.432,-8.639,1.106
121.498031,-2.04,-8.38,0.992
121.507737,-1.804,-8.083,0.885
121.517443,-1.569,-7.753,0.824
121.527149,-1.412,-7.371,0.692
121.536855,-1.216,-6.919,0.612
121.546561,-1.059,-6.435,0.578
121.556267,-1.02,-5.919,0.589
121.565973,-0.981,-5.481,0.587
121.575679,-1.02,-5.056,0.662
121.585394,-1.098,-4.74,0.678
121.595109,-1.138,-4.488,0.603
121.604824,-1.216,-4.436,0.532
121.614539,-1.216,-4.608,0.382
121.624254,-1.294,-4.999,0.114
121.633969,-1.294,-5.513,-0.136
121.643684,-1.334,-6.181,-0.413
121.653399,-1.334,-6.813,-0.444
121.663114,-1.373,-7.058,-0.408
121.672829,-1.294,-7.006,-0.478
121.682544,-1.255,-6.915,-0.542
121.692259,-1.255,-7.101,-0.615
121.701974,-1.216,-7.526,-0.69
121.711689,-1.177,-7.842,-0.706
121.721412,-1.138,-7.992,-0.533
121.731135,-1.02,-8.076,-0.508
121.740858,-0.902,-8.276,-0.503
121.750581,-0.785,-8.587,-0.319
121.760304,-0.785,-9.123,-0.215
121.770027,-0.706,-9.819,-0.337
121.77975,-0.706,-11.014,-0.787
121.789473,-0.706,-12.571,-1.221
121.799196,-0.824,-13.721,-1.025
121.808919,-0.863,-14.148,-0.862
121.818642,-0.667,-14.154,-0.823
121.828365,-0.667,-13.802,-0.562
121.838088,-0.667,-14.318,-0.573
121.847811,-0.471,-15.534,-0.907
121.857564,-0.549,-16.145,-0.377
121.867317,-0.667,-15.138,0.238
121.87707,-0.667,-14.007,0.597
121.886823,-0.706,-13.379,0.429
121.896576,-0.706,-14.029,0.275
121.906329,-0.863,-14.643,0.366
121.916082,-0.941,-14.691,0.636
121.925835,-0.941,-14.407,0.606
121.935588,-0.863,-14.245,0.595
121.945341,-0.824,-14.15,0.731
121.955094,-0.824,-14.1,0.9
121.964847,-0.785,-13.825,1.147
121.9746,-0.785,-13.427,1.377
121.984363,-0.785,-12.9,1.549
121.994126,-0.824,-12.243,1.665
122.003889,-0.863,-11.586,1.781
122.013652,-0.981,-11.064,1.754
122.023415,-1.098,-10.548,1.765
122.033178,-1.098,-10.109,1.762
122.042941,-1.098,-9.587,1.735
122.052704,-1.059,-8.98,1.683
122.062467,-1.02,-8.36,1.553
122.07223,-0.902,-7.785,1.455
122.081993,-0.745,-7.319,1.299
122.091756,-0.588,-6.976,1.16
122.101519,-0.471,-6.556,1.035
122.111282,-0.314,-6.142,0.948
122.121062,-0.196,-5.728,0.862
122.130842,-0.118,-5.367,0.846
122.140622,-0.118,-4.922,0.805
122.150402,-0.039,-4.54,0.673
122.160182,0.196,-4.229,0.489
122.169962,0.353,-4.117,0.31
122.179742,0.431,-4.258,0.205
122.189522,0.51,-4.49,0.164
122.199302,0.667,-4.697,0.207
122.209082,0.824,-4.851,0.18
122.218862,0.902,-5.04,0.346
122.228642,0.941,-5.358,0.569
122.238422,0.902,-5.69,0.869
122.248202,0.745,-5.958,1.26
122.257969,0.51,-6.231,1.451
122.267736,0.314,-6.612,1.582
122.277503,0.157,-7.037,1.508
122.28727,0.078,-7.526,1.342
122.297037,-0.039,-7.783,1.217
122.306804,-0.078,-7.942,0.99
122.316571,-0.235,-8.055,0.731
122.326338,-0.588,-8.26,0.535
122.336105,-0.863,-8.667,0.583
122.345872,-1.177,-9.439,0.447
122.355639,-1.569,-10.487,0.74
122.365406,-2.197,-11.312,1.351
122.375173,-2.942,-12.03,1.583
122.38494,-3.609,-12.516,1.856
122.394698,-4.08,-12.741,2.454
122.404456,-4.276,-14.215,2.233
122.414214,-4.08,-17.417,1.868
122.423972,-3.844,-18.644,4.081
122.43373,-3.844,-16.453,4.986
122.443488,-3.766,-14.547,4.565
122.453246,-3.334,-13.927,4.435
122.463004,-3.099,-15.269,4.597
122.472762,-3.138,-16.696,4.783
122.48252,-3.099,-17.033,4.883
122.492278,-3.02,-16.733,4.538
122.502036,-2.903,-16.26,4.342
122.511794,-2.864,-15.713,4.399
122.521552,-2.667,-14.976,4.29
122.531308,-2.589,-14.152,4.356
122.541064,-2.393,-13.209,4.203
122.55082,-2.314,-12.156,4.11
122.560576,-2.157,-11.259,3.99
122.570332,-1.961,-10.561,3.874
122.580088,-1.922,-9.986,3.776
122.589844,-1.883,-9.482,3.626
122.5996,-1.765,-9.041,3.385
122.609356,-1.726,-8.575,3.228
122.619112,-1.648,-8.089,2.955
122.628868,-1.608,-7.635,2.637
122.638624,-1.53,-7.31,2.376
122.64838,-1.373,-6.921,2.205
122.658109,-1.294,-6.476,2.164
122.667838,-1.138,-5.933,2.021
122.677567,-0.981,-5.499,1.819
122.687296,-0.785,-5.181,1.596
122.697025,-0.588,-5.256,1.344
122.706754,-0.51,-5.513,1.219
122.716483,-0.51,-5.885,1.073
122.726212,-0.549,-6.258,0.928
122.735941,-0.588,-6.676,0.814
122.74567,-0.706,-7.133,0.694
122.755399,-0.863,-7.533,0.703
122.765128,-1.02,-7.592,0.812
122.774857,-1.177,-7.405,0.885
122.784586,-1.373,-6.942,0.967
122.794282,-1.53,-6.272,1.005
122.803978,-1.687,-5.478,1.026
122.813674,-1.687,-4.883,0.812
122.82337,-1.608,-5.195,0.319
122.833066,-1.491,-6.031,0.092
122.842762,-1.451,-6.835,-0.09
122.852458,-1.412,-7.274,-0.088
122.862154,-1.255,-7.203,-0.035
122.87185,-1.059,-7.272,-0.326
122.881546,-0.902,-7.746,-0.569
122.891242,-0.549,-8.805,-1.114
122.900938,-0.118,-10.567,-1.744
122.910634,0.157,-12.21,-1.914
122.92033,0.353,-13.498,-2.061
122.929989,0.471,-14.03,-1.757
122.939648,0.314,-13.323,-1.473
122.949307,0.157,-12.137,-0.746
122.958966,0.078,-11.414,-0.778
122.968625,0.235,-13.168,-2.123
122.978284,0.902,-16.136,-2.686
122.987943,0.549,-17.14,-1.509
122.997602,0.471,-16.615,-1.097
123.007261,0.628,-15.809,-1.154
123.01692,0.785,-15.377,-1.118
123.026579,0.785,-15.77,-1.148
123.036238,0.706,-16.081,-0.964
123.045897,0.628,-16.2,-0.745
123.055556,0.667,-15.981,-0.627
123.065203,0.667,-15.397,-0.325
123.07485,0.628,-14.659,0.004
123.084497,0.471,-13.843,0.347
123.094144,0.275,-13.134,0.393
123.103791,0.196,-12.496,0.386
123.113438,0.118,-11.632,0.458
123.123085,0.039,-10.748,0.415
123.132732,0,-9.78,0.347
123.142379,-0.078,-8.967,0.251
123.152026,-0.157,-8.244,0.219
123.161673,-0.157,-7.599,0.174
123.17132,-0.118,-7.056,0.031
123.180967,-0.157,-6.628,-0.133
123.190603,-0.078,-6.247,-0.265
123.200239,-0.039,-6.013,-0.463
123.209875,0.039,-5.947,-0.61
123.219511,0.118,-5.933,-0.688
123.229147,0.196,-5.997,-0.779
123.238783,0.235,-6.004,-0.74
123.248419,0.275,-5.81,-0.706
123.258055,0.314,-5.438,-0.561
123.267691,0.392,-5.251,-0.488
123.277327,0.51,-5.272,-0.372
123.286963,0.667,-5.383,-0.192
123.296599,0.745,-5.495,-0.013
123.306235,0.941,-5.508,0.064
123.315871,1.138,-5.49,0.187
123.325493,1.569,-5.613,0.205
123.335115,1.961,-6.065,0.285
123.344737,2.275,-6.706,0.53
123.354359,2.628,-7.244,0.874
123.363981,2.785,-7.517,1.064
123.373603,2.824,-7.567,0.896
123.383225,2.628,-7.505,0.549
123.392847,2.393,-7.469,0.117
123.402469,2.118,-7.383,-0.147
123.412091,1.687,-6.976,-0.194
123.421713,1.294,-6.849,-0.69
123.431335,0.667,-7.89,-1.79
123.440957,-0.196,-9.494,-2.63
123.450579,-1.294,-10.358,-2.703
123.460214,-2.079,-10.799,-3.139
123.469849,-2.746,-11.071,-3.625
123.479484,-3.413,-10.962,-3.566
123.489119,-4.158,-10.433,-2.955
123.498754,-4.943,-9.644,-2.457
123.508389,-5.57,-9.867,-2.775
123.518024,-5.962,-12.998,-4.443
123.527659,-6.472,-16.296,-4.267
123.537294,-6.865,-17.309,-2.813
123.546929,-6.629,-16.243,-2.306
123.556564,-6.159,-14.9,-2.468
123.566199,-5.766,-14.918,-2.591
123.575834,-5.413,-16.827,-2.609
123.585479,-5.217,-18.304,-2.59
123.595124,-5.178,-18.254,-2.422
123.604769,-5.099,-17.391,-2.349
123.614414,-4.982,-16.516,-2.116
123.624059,-4.825,-15.493,-1.816
123.633704,-4.511,-14.327,-1.65
123.643349,-4.315,-13.091,-1.432
123.652994,-4.08,-12.105,-1.378
123.662639,-3.844,-11.525,-1.275
123.672284,-3.53,-11.055,-1.232
123.681929,-3.256,-10.56,-1.105
123.691574,-2.903,-9.987,-0.964
123.701219,-2.55,-9.253,-0.835
123.710864,-2.118,-8.558,-0.712
123.720519,-1.765,-7.915,-0.519
123.730174,-1.451,-7.367,-0.463
123.739829,-1.177,-6.858,-0.413
123.749484,-1.059,-6.342,-0.401
123.759139,-0.981,-5.904,-0.404
123.768794,-0.902,-5.549,-0.381
123.778449,-0.863,-5.285,-0.295
123.788104,-0.785,-5.17,-0.274
123.797759,-0.628,-5.015,-0.247
123.807414,-0.588,-4.888,-0.065
123.817069,-0.549,-4.645,0.137
123.826724,-0.549,-4.447,0.371
123.836379,-0.588,-4.326,0.591
123.846034,-0.588,-4.495,0.641
123.855688,-0.667,-4.983,0.476
123.865342,-0.628,-5.638,0.121
123.874996,-0.588,-6.235,-0.104
123.88465,-0.628,-6.531,-0.235
123.894304,-0.824,-6.356,-0.324
123.903958,-1.098,-6.097,-0.438
123.913612,-1.412,-6.042,-0.747
123.923266,-1.844,-6.265,-1.065
123.93292,-2.157,-6.554,-1.235
123.942574,-2.354,-6.624,-1.287
123.952228,-2.393,-6.615,-1.565
123.961882,-2.354,-6.715,-1.901
123.971536,-2.275,-7.406,-2.501
123.98119,-1.883,-8.919,-3.405
123.990882,-1.412,-11.08,-4.025
124.000574,-0.863,-12.91,-4.268
124.010266,-0.235,-13.805,-4.386
124.019958,0.314,-13.562,-4.184
124.02965,0.628,-12.532,-3.923
124.039342,1.02,-12.689,-4.388
124.049034,1.334,-14.546,-5.154
124.058726,1.373,-16.95,-5.299
124.068418,1.255,-18.079,-4.542
124.07811,1.412,-17.354,-4.136
124.087802,1.608,-16.33,-4.074
124.097494,1.451,-15.532,-3.854
124.107186,0.941,-15.657,-3.597
124.116907,0.431,-16.052,-3.388
124.126628,0.078,-16.132,-3.163
124.136349,-0.157,-15.818,-2.909
124.14607,-0.235,-15.227,-2.645
124.155791,-0.392,-14.436,-2.386
124.165512,-0.51,-13.548,-2.23
124.175233,-0.431,-12.673,-1.996
124.184954,-0.275,-11.662,-1.857
124.194675,-0.157,-10.555,-1.582
124.204396,0,-9.376,-1.494
124.214117,0.039,-8.281,-1.38
124.223838,0.078,-7.276,-1.203
124.233559,0.039,-6.426,-1.053
124.24328,-0.039,-5.829,-0.829
124.253001,-0.118,-5.417,-0.676
124.262722,-0.157,-5.27,-0.611
124.272443,-0.078,-5.333,-0.701
124.282164,-0.078,-5.456,-0.683
124.291885,-0.039,-5.481,-0.767
124.301606,-0.039,-5.461,-0.883
124.311327,-0.078,-5.486,-0.967
124.321048,-0.039,-5.479,-1.006
124.330769,0.039,-5.433,-1.038
124.34049,0.118,-5.408,-0.954
124.350211,0.235,-5.447,-0.96
124.359932,0.275,-5.647,-0.956
124.369653,0.431,-5.924,-0.965
124.379374,0.549,-6.163,-0.967
124.389084,0.745,-6.151,-0.806
124.398794,0.863,-5.817,-0.667
124.408504,0.981,-5.411,-0.715
124.418214,1.02,-5.249,-0.726
124.427924,1.02,-5.474,-0.806
124.437634,0.981,-5.874,-0.797
124.447344,0.941,-6.254,-0.904
124.457054,0.902,-6.626,-1.049
124.466764,0.824,-6.954,-1.226
124.476474,0.785,-7.133,-1.337
124.486184,0.706,-7.408,-1.585
124.495894,0.588,-8.267,-2.135
124.505604,0.314,-9.565,-2.682
124.515314,-0.039,-11.371,-3.28
124.525017,-0.431,-13.166,-3.716
124.53472,-0.902,-14.398,-3.734
124.544423,-1.412,-14.105,-3.363
124.554126,-1.961,-12.857,-2.984
124.563829,-2.785,-11.712,-2.702
124.573532,-3.256,-12.632,-3.582
124.583235,-4.04,-15.968,-4.767
124.592938,-5.06,-17.9,-3.754
124.602641,-5.492,-17.25,-2.922
124.612344,-5.492,-16.036,-3.027
124.622047,-5.727,-14.952,-3.075
124.63175,-6.198,-15.043,-3.011
124.641453,-6.433,-15.889,-2.961
124.651156,-6.433,-16.291,-2.713
124.660874,-6.355,-15.984,-2.42
124.670592,-5.962,-15.148,-2.193
124.68031,-5.492,-14.266,-1.998
124.690028,-4.864,-13.48,-1.939
124.699746,-4.315,-12.714,-1.764
124.709464,-3.805,-12.166,-1.707
124.719182,-3.295,-11.78,-1.639
124.7289,-2.903,-11.407,-1.494
124.738618,-2.511,-10.828,-1.391
124.748336,-2.197,-10.171,-1.276
124.758054,-1.883,-9.469,-1.192
124.767772,-1.569,-8.805,-1.114
124.77749,-1.334,-8.174,-1.083
124.787207,-1.098,-7.587,-1.019
124.796924,-0.902,-6.976,-0.872
124.806641,-0.667,-6.46,-0.86
124.816358,-0.51,-5.976,-0.894
124.826075,-0.431,-5.57,-0.942
124.835792,-0.392,-5.376,-0.908
124.845509,-0.353,-5.183,-0.874
124.855226,-0.471,-4.965,-0.756
124.864943,-0.588,-4.765,-0.761
124.87466,-0.706,-4.629,-0.856
124.884377,-0.902,-4.604,-0.772
124.894094,-0.981,-4.456,-0.706
124.903811,-1.098,-4.231,-0.627
124.913528,-1.02,-4.127,-0.767
124.923237,-0.981,-4.331,-0.963
124.932946,-0.941,-4.697,-1.147
124.942655,-0.941,-5.154,-1.267
124.952364,-0.981,-5.424,-1.315
124.962073,-0.981,-5.611,-1.388
124.971782,-1.02,-5.808,-1.622
124.981491,-1.059,-6.058,-1.785
124.9912,-1.098,-6.413,-1.808
125.000909,-1.177,-6.651,-1.81
125.010618,-1.255,-6.715,-1.901
125.020327,-1.294,-6.899,-2.212
125.030036,-1.294,-7.81,-2.692
125.039745,-1.255,-9.435,-3.416
125.049454,-1.138,-11.712,-4.057
125.059175,-1.216,-13.632,-4.236
125.068896,-1.53,-14.248,-3.906
125.078617,-1.569,-13.753,-3.779
125.088338,-1.608,-12.916,-3.552
125.098059,-1.765,-12.385,-3.18
125.10778,-1.961,-12.355,-2.896
125.117501,-2.001,-13.364,-3.273
125.127222,-1.687,-15.739,-4.488
125.136943,-1.804,-17.579,-4.215
125.146664,-1.961,-16.552,-3.038
125.156385,-1.491,-15.452,-2.725
125.166106,-1.098,-14.805,-3.009
125.175827,-1.098,-15.152,-3.07
125.185554,-1.02,-16.173,-2.931
125.195281,-0.941,-16.645,-2.736
125.205008,-0.863,-16.484,-2.747
125.214735,-0.863,-15.87,-2.838
125.224462,-0.941,-15.048,-2.534
125.234189,-0.902,-14.173,-2.3
125.243916,-1.059,-12.925,-1.921
125.253643,-1.255,-11.714,-1.787
125.26337,-1.373,-10.626,-1.635
125.273097,-1.491,-9.705,-1.432
125.282824,-1.608,-9.042,-1.355
125.292551,-1.804,-8.642,-1.364
125.302278,-1.961,-8.371,-1.317
125.312005,-2.04,-7.935,-1.081
125.321739,-2.001,-7.44,-0.953
125.331473,-1.883,-6.853,-0.89
125.341207,-1.373,-6.26,-0.865
125.350941,-0.863,-5.783,-0.86
125.360675,-0.51,-5.372,-0.708
125.370409,-0.196,-4.999,-0.563
125.380143,0.078,-4.658,-0.463
125.389877,0.235,-4.17,-0.297
125.399611,0.275,-3.622,-0.24
125.409345,0.353,-3.184,-0.243
125.419079,0.431,-2.886,-0.35
125.428813,0.51,-2.852,-0.543
125.438547,0.549,-3.056,-0.738
125.448281,0.549,-3.436,-0.845
125.457995,0.549,-3.918,-1.049
125.467709,0.667,-4.354,-1.286
125.477423,0.785,-4.604,-1.449
125.487137,0.706,-4.618,-1.372
125.496851,0.51,-4.399,-1.254
125.506565,0.314,-4.213,-1.181
125.516279,0.118,-4.59,-1.526
125.525993,-0.196,-5.638,-1.91
125.535707,-0.628,-7.201,-2.305
125.545421,-1.216,-9.106,-2.801
125.555135,-1.922,-11.126,-3.316
125.564849,-2.55,-12.594,-3.575
125.574563,-3.06,-13.071,-3.579
125.584277,-3.53,-13.341,-3.627
125.594006,-4.001,-14.009,-3.904
125.603735,-4.59,-15.996,-4.613
125.613464,-5.256,-17.6,-4.776
125.623193,-6.159,-17,-4.113
125.632922,-6.59,-16.134,-3.602
125.642651,-6.747,-15.757,-3.256
125.65238,-6.865,-16.684,-3.42
125.662109,-6.865,-17.997,-3.651
125.671838,-6.943,-18.87,-3.447
125.681567,-6.551,-19.143,-3.256
125.691296,-6.08,-18.879,-3.17
125.701025,-5.57,-17.972,-2.89
125.710754,-5.178,-16.711,-2.588
125.720491,-4.786,-15.354,-2.15
125.730228,-4.315,-13.977,-1.827
125.739965,-3.805,-12.671,-1.557
125.749702,-3.413,-11.519,-1.314
125.759439,-2.942,-10.469,-1.169
125.769176,-2.432,-9.56,-1.128
125.778913,-2.04,-8.799,-1.153
125.78865,-1.726,-8.174,-1.083
125.798387,-1.569,-7.524,-0.928
125.808124,-1.451,-6.853,-0.89
125.817861,-1.373,-6.401,-0.969
125.827598,-1.294,-6.02,-1.101
125.837335,-1.294,-5.883,-1.197
125.847072,-1.294,-5.786,-1.299
125.856786,-1.255,-5.726,-1.408
125.8665,-1.138,-5.674,-1.479
125.876214,-0.981,-5.674,-1.479
125.885928,-0.981,-5.57,-1.619
125.895642,-0.941,-5.517,-1.69
125.905356,-0.941,-5.62,-1.788
125.91507,-0.902,-5.683,-1.878
125.924784,-0.902,-5.792,-1.937
125.934498,-0.863,-5.792,-1.937
125.944212,-0.863,-5.631,-1.949
125.953926,-0.941,-5.406,-1.869
125.96364,-0.981,-5.206,-1.874
125.973354,-0.981,-5.199,-1.913
125.983068,-0.941,-5.438,-1.915
125.992784,-0.902,-5.74,-2.008
126.0025,-0.824,-6.186,-1.967
126.012216,-0.706,-6.681,-2.094
126.021932,-0.628,-7.099,-2.208
126.031648,-0.471,-7.235,-2.112
126.041364,-0.235,-7.274,-2.119
126.05108,-0.039,-7.429,-2.146
126.060796,0.235,-7.847,-2.26
126.070512,0.431,-8.465,-2.369
126.080228,0.628,-9.294,-2.635
126.089944,0.785,-10.267,-2.766
126.09966,0.824,-11.148,-2.962
126.109376,0.706,-11.798,-3.116
126.119072,0.628,-12.301,-3.205
126.128768,0.588,-12.812,-3.016
126.138464,0.667,-13.266,-2.698
126.14816,0.863,-13.764,-2.586
126.157856,1.294,-15.184,-3.116
126.167552,1.373,-17.102,-3.533
126.177248,1.294,-16.761,-2.756
126.186944,1.491,-15.489,-2.293
126.19664,1.687,-14.409,-1.864
126.206336,1.451,-13.989,-1.311
126.216032,1.138,-14.682,-0.996
126.225728,0.785,-15.786,-0.832
126.235424,0.51,-16.452,-0.67
126.24512,0.549,-16.515,-0.761
126.254816,0.667,-16.263,-0.836
126.264512,0.51,-15.495,-0.9
126.274208,0.275,-14.264,-0.882
126.283904,0.157,-12.948,-0.889
126.2936,-0.078,-11.498,-0.753
126.303296,-0.392,-10.035,-0.694
126.312992,-0.588,-8.751,-0.746
126.322688,-0.745,-7.758,-0.731
126.332384,-0.745,-7.081,-0.731
126.34208,-0.706,-6.66,-0.856
126.351776,-0.667,-6.344,-0.84
126.361472,-0.667,-6.131,-0.922
126.371168,-0.628,-5.885,-0.958
126.380841,-0.51,-5.822,-0.867
126.390514,-0.431,-6.02,-1.101
126.400187,-0.353,-6.265,-1.065
126.40986,-0.314,-6.285,-0.949
126.419533,-0.235,-6.138,-0.883
126.429206,-0.118,-5.99,-0.817
126.438879,0,-5.86,-0.874
126.448552,0.078,-6.029,-0.824
126.458225,0.157,-6.242,-0.742
126.467898,0.235,-6.354,-0.563
126.477571,0.235,-6.244,-0.504
126.487244,0.196,-5.956,-0.333
126.496917,0.118,-5.66,-0.201
126.50659,0.039,-5.717,-0.331
126.516266,0.039,-6.058,-0.431
126.525942,0.078,-6.219,-0.42
126.535618,0.118,-6.079,-0.315
126.545294,0.235,-5.781,-0.422
126.55497,0.314,-5.76,-0.538
126.564646,0.353,-5.908,-0.604
126.574322,0.196,-6.101,-0.638
126.583998,0.078,-6.333,-0.679
126.593674,-0.078,-6.79,-0.799
126.60335,-0.235,-7.669,-1.233
126.613026,-0.353,-9.308,-1.88
126.622702,-0.588,-11.482,-2.423
126.632378,-0.902,-13.409,-2.564
126.64204,-1.412,-14.398,-2.379
126.651702,-1.883,-13.957,-1.943
126.661364,-2.275,-13.162,-1.484
126.671026,-2.589,-12.912,-1.321
126.680688,-2.824,-13.421,-1.371
126.69035,-2.785,-15.155,-2.154
126.700012,-2.471,-17.418,-2.872
126.709674,-2.864,-17.54,-2.177
126.719336,-3.02,-16.5,-1.754
126.728998,-2.864,-15.709,-1.495
126.73866,-2.903,-15.786,-1.509
126.748322,-3.02,-16.675,-1.666
126.757984,-3.138,-17.009,-1.804
126.767646,-3.177,-16.997,-1.643
126.77732,-2.981,-16.566,-1.607
126.786994,-2.746,-16.077,-1.441
126.796668,-2.511,-15.561,-1.429
126.806342,-2.354,-14.743,-1.325
126.816016,-2.118,-14.048,-1.202
126.82569,-1.883,-13.293,-1.189
126.835364,-1.765,-12.437,-1.078
126.845038,-1.608,-11.753,-1.116
126.854712,-1.451,-11.005,-1.064
126.864386,-1.334,-10.342,-0.987
126.87406,-1.255,-9.594,-0.935
126.883734,-1.294,-8.821,-0.799
126.893408,-1.255,-8.119,-0.715
126.903089,-1.216,-7.526,-0.69
126.91277,-1.098,-7.126,-0.699
126.922451,-0.941,-6.803,-0.722
126.932132,-0.824,-6.429,-0.815
126.941813,-0.588,-6.151,-0.806
126.951494,-0.392,-5.899,-0.881
126.961175,-0.235,-5.622,-0.872
126.970856,-0.235,-5.404,-0.754
126.980537,-0.314,-5.179,-0.674
126.990218,-0.471,-5.031,-0.608
126.999899,-0.549,-4.961,-0.556
127.00958,-0.588,-4.89,-0.504
127.019261,-0.549,-4.781,-0.445
127.028942,-0.51,-4.665,-0.424
127.038627,-0.549,-4.581,-0.449
127.048312,-0.51,-4.754,-0.599
127.057997,-0.51,-5.042,-0.77
127.067682,-0.549,-5.338,-0.901
127.077367,-0.549,-5.563,-0.981
127.087052,-0.588,-5.883,-1.197
127.096737,-0.588,-6.326,-1.394
127.106422,-0.588,-6.854,-1.567
127.116107,-0.588,-7.31,-1.687
127.125792,-0.628,-7.581,-1.735
127.135477,-0.706,-7.46,-1.515
127.145162,-0.706,-7.056,-1.324
127.154847,-0.628,-6.926,-1.381
127.164532,-0.471,-7.433,-1.669
127.174244,-0.353,-8.858,-2.398
127.183956,-0.196,-11.38,-3.002
127.193668,-0.157,-13.978,-3.182
127.20338,-0.353,-15.509,-2.854
127.213092,-0.353,-15.111,-2.625
127.222804,-0.196,-13.773,-2.309
127.232516,-0.196,-12.578,-1.859
127.242228,-0.392,-12.289,-1.689
127.25194,-0.392,-13.884,-2.13
127.261652,-0.196,-16.593,-2.806
127.271364,-0.628,-17.761,-2.056
127.281076,-0.785,-16.411,-1.579
127.290788,-0.588,-15.291,-1.382
127.300515,-0.353,-14.659,-1.35
127.310242,-0.353,-14.923,-1.436
127.319969,-0.392,-15.495,-1.577
127.329696,-0.353,-15.843,-1.638
127.339423,-0.314,-15.811,-1.593
127.34915,-0.196,-15.47,-1.493
127.358877,-0.196,-15.091,-1.386
127.368604,-0.196,-14.525,-1.207
127.378331,-0.196,-13.959,-1.027
127.388058,-0.314,-13.264,-0.905
127.397785,-0.392,-12.523,-0.814
127.407512,-0.471,-11.814,-0.769
127.417239,-0.471,-11.073,-0.678
127.426966,-0.51,-10.405,-0.401
127.436697,-0.471,-9.689,-0.394
127.446428,-0.431,-8.942,-0.342
127.456159,-0.353,-8.258,-0.381
127.46589,-0.235,-7.703,-0.363
127.475621,-0.118,-7.29,-0.449
127.485352,-0.078,-6.967,-0.472
127.495083,-0.039,-6.69,-0.463
127.504814,0,-6.367,-0.485
127.514545,0,-6.038,-0.547
127.524276,0.078,-5.715,-0.57
127.534007,0.157,-5.456,-0.683
127.543738,0.275,-5.372,-0.708
127.553469,0.392,-5.256,-0.688
127.5632,0.51,-4.967,-0.517
127.57291,0.667,-4.542,-0.442
127.58262,0.863,-4.143,-0.452
127.59233,0.981,-4.122,-0.568
127.60204,1.059,-4.463,-0.667
127.61175,1.098,-4.863,-0.658
127.62146,1.098,-5.224,-0.642
127.63117,1.098,-5.449,-0.722
127.64088,1.098,-5.463,-0.645
127.65059,1.138,-5.315,-0.579
127.6603,1.216,-5.199,-0.558
127.67001,1.294,-5.347,-0.624
127.67972,1.412,-5.835,-0.79
127.68943,1.451,-6.479,-0.983
127.69914,1.491,-7.135,-1.099
127.708851,1.53,-7.388,-1.024
127.718562,1.412,-7.335,-1.094
127.728273,1.294,-7.442,-1.392
127.737984,1.098,-8.265,-1.696
127.747695,0.824,-9.71,-2.31
127.757406,0.588,-11.53,-2.83
127.767117,0.196,-13.016,-3.211
127.776828,-0.314,-13.739,-3.179
127.786539,-0.785,-13.469,-3.132
127.79625,-1.373,-12.898,-2.752
127.805961,-2.157,-12.439,-2.193
127.815672,-3.06,-13.321,-2.389
127.825383,-3.648,-16.009,-3.181
127.835073,-4.668,-17.738,-2.411
127.844763,-5.296,-16.972,-1.559
127.854453,-5.139,-16.097,-1.325
127.864143,-5.099,-16,-1.427
127.873833,-5.256,-17.031,-1.45
127.883523,-5.335,-17.779,-1.502
127.893213,-5.256,-17.856,-1.515
127.902903,-4.982,-17.656,-1.52
127.912593,-4.707,-17.14,-1.509
127.922283,-4.433,-16.541,-1.522
127.931973,-4.236,-15.716,-1.457
127.941663,-4.001,-14.898,-1.352
127.951353,-3.766,-14.066,-1.325
127.961043,-3.57,-13.043,-1.025
127.970736,-3.413,-11.853,-0.775
127.980429,-3.138,-10.912,-0.689
127.990122,-2.707,-10.139,-0.553
127.999815,-2.314,-9.578,-0.574
128.009508,-1.922,-9.062,-0.562
128.019201,-1.53,-8.508,-0.544
128.028894,-1.216,-8.249,-0.658
128.038587,-1.138,-8.062,-0.585
128.04828,-1.138,-7.812,-0.422
128.057973,-1.059,-7.408,-0.231
128.067666,-0.941,-6.808,-0.244
128.077359,-0.706,-6.233,-0.342
128.087052,-0.549,-5.781,-0.422
128.09677,-0.431,-5.476,-0.567
128.106488,-0.353,-5.386,-0.631
128.116206,-0.275,-5.217,-0.681
128.125924,-0.275,-5.024,-0.647
128.135642,-0.275,-4.754,-0.599
128.14536,-0.353,-4.483,-0.552
128.155078,-0.431,-4.29,-0.517
128.164796,-0.471,-4.104,-0.445
128.174514,-0.471,-3.988,-0.424
128.184232,-0.549,-4.052,-0.515
128.19395,-0.628,-4.256,-0.711
128.203668,-0.785,-4.847,-0.974
128.213386,-0.941,-5.863,-1.313
128.223102,-1.059,-6.931,-1.581
128.232818,-1.255,-7.788,-1.692
128.242534,-1.373,-8.131,-1.553
128.25225,-1.451,-8.072,-1.662
128.261966,-1.53,-7.794,-1.653
128.271682,-1.53,-7.513,-1.444
128.281398,-1.569,-7.199,-1.19
128.291114,-1.569,-7.001,-0.956
128.30083,-1.53,-7.181,-1.067
128.310546,-1.412,-7.522,-1.167
128.320262,-1.294,-8.256,-1.296
128.329978,-1.138,-9.501,-1.914
128.339694,-1.098,-11.23,-2.498
128.34941,-1.216,-12.944,-2.72
128.359117,-1.294,-14.034,-2.634
128.368824,-1.255,-13.818,-2.277
128.378531,-1.059,-13.18,-2.284
128.388238,-0.706,-13.048,-2.58
128.397945,-0.628,-13.416,-2.525
128.407652,-0.588,-13.941,-2.259
128.417359,-0.588,-14.45,-2.309
128.427066,-0.549,-14.998,-2.366
128.436773,-0.667,-14.957,-1.92
128.44648,-0.588,-14.432,-1.509
128.456187,-0.314,-14.141,-1.577
128.465894,-0.157,-14.421,-2.025
128.475601,-0.078,-14.905,-1.991
128.485308,-0.235,-15.973,-2.259
128.495015,-0.51,-16.386,-2.172
128.504725,-0.628,-15.923,-2.091
128.514435,-0.706,-15.164,-1.877
128.524145,-0.941,-14.232,-1.514
128.533855,-1.177,-13.48,-1.262
128.543565,-1.373,-12.916,-0.844
128.553275,-1.491,-12.352,-0.425
128.562985,-1.412,-11.755,-0.201
128.572695,-1.177,-11.059,-0.078
128.582405,-0.863,-10.396,-0.001
128.592115,-0.51,-9.655,0.09
128.601825,-0.196,-8.792,0.163
128.611535,0.039,-7.96,0.19
128.621245,0.157,-7.192,0.126
128.630937,0.196,-6.41,-0.015
128.640629,0.196,-5.817,0.01
128.650321,0.196,-5.308,0.06
128.660013,0.235,-4.908,0.051
128.669705,0.235,-4.586,0.028
128.679397,0.118,-4.424,0.017
128.689089,0,-4.27,0.044
128.698781,-0.196,-4.192,0.057
128.708473,-0.314,-4.083,0.116
128.718165,-0.235,-3.988,0.253
128.727857,-0.118,-3.886,0.35
128.737549,0.039,-3.917,0.305
128.747241,0.196,-4.349,0.269
128.756933,0.157,-4.815,0.426
128.766625,-0.039,-5.242,0.589
128.776317,-0.078,-5.494,0.664
128.786009,-0.118,-5.747,0.739
128.795701,-0.196,-5.865,0.957
128.805393,-0.118,-6.149,0.987
128.815085,-0.118,-6.285,1.083
128.824777,-0.196,-6.378,1.385
128.834469,-0.353,-6.265,1.644
128.844161,-0.471,-6.324,1.753
128.853853,-0.628,-6.783,1.871
128.863545,-0.863,-7.655,2.076
128.873237,-1.177,-8.966,2.283
128.882929,-1.53,-10.923,2.535
128.892645,-1.883,-13.304,2.713
128.902361,-2.236,-15.297,3.397
128.912077,-2.628,-16.072,4.177
128.921793,-3.02,-15.888,4.488
128.931509,-3.334,-15.413,4.731
128.941225,-3.766,-15.194,4.849
128.950941,-4.04,-15.478,4.879
128.960657,-4.119,-15.306,5.029
128.970373,-4.08,-14.849,5.149
128.980089,-3.844,-14.558,5.081
128.989805,-3.727,-14.224,5.219
128.999521,-3.687,-13.942,5.428
129.009237,-3.648,-13.876,5.281
129.018954,-3.491,-14.217,5.181
129.028671,-3.295,-14.738,4.969
129.038388,-3.099,-15.188,4.81
129.048105,-2.903,-15.476,4.64
129.057822,-2.785,-15.404,4.454
129.067539,-2.667,-14.829,4.356
129.077256,-2.589,-13.849,4.449
129.086973,-2.511,-12.779,4.478
129.09669,-2.511,-11.947,4.505
129.106407,-2.511,-11.4,4.562
129.116124,-2.511,-11.038,4.546
129.125841,-2.432,-10.734,4.401
129.135558,-2.354,-10.391,4.262
129.145275,-2.197,-9.918,4.067
129.154997,-2.001,-9.527,3.658
129.164719,-1.922,-9.087,3.417
129.174441,-1.726,-8.621,3.26
129.184163,-1.412,-7.991,2.853
129.193885,-1.216,-7.414,2.517
129.203607,-1.02,-6.819,2.303
129.213329,-0.824,-6.262,2.082
129.223051,-0.745,-5.796,1.925
129.232773,-0.667,-5.247,1.744
129.242495,-0.667,-4.903,1.605
129.252217,-0.628,-4.683,1.484
129.261939,-0.667,-4.579,1.344
129.271661,-0.667,-4.604,1.26
129.281383,-0.667,-4.642,1.253
129.291094,-0.628,-4.699,1.123
129.300805,-0.588,-4.769,1.071
129.310516,-0.588,-5.026,0.946
129.320227,-0.588,-5.444,0.832
129.329938,-0.588,-5.94,0.705
129.339649,-0.588,-6.397,0.585
129.34936,-0.667,-6.969,0.444
129.359071,-0.785,-7.433,0.362
129.368782,-0.902,-7.717,0.392
129.378493,-1.138,-7.674,0.599
129.388204,-1.334,-7.41,0.685
129.397915,-1.412,-7.249,0.674
129.407626,-1.53,-7.41,0.685
129.417337,-1.648,-7.778,0.74
129.427062,-1.648,-8.403,0.669
129.436787,-1.608,-9.257,0.319
129.446512,-1.569,-10.382,-0.078
129.456237,-1.569,-11.664,-0.264
129.465962,-1.569,-12.587,-0.228
129.475687,-1.608,-13.148,-0.207
129.485412,-1.687,-13.277,-0.15
129.495137,-1.687,-13.027,0.013
129.504862,-1.687,-12.977,0.181
129.514587,-1.491,-13.129,0.593
129.524312,-1.098,-13.966,0.366
129.534037,-0.039,-15.847,-0.484
129.543762,-0.314,-17.52,-0.261
129.553494,-0.118,-16.543,0.07
129.563226,0.118,-15.813,0
129.572958,0.471,-15.477,-0.1
129.58269,1.059,-15.638,-0.089
129.592422,1.569,-15.731,-0.464
129.602154,2.04,-15.502,-0.861
129.611886,2.314,-15.118,-1.232
129.621618,2.432,-14.704,-1.318
129.63135,2.432,-14.357,-1.257
129.641082,2.314,-14.034,-1.28
129.650814,2.001,-13.675,-1.057
129.660546,1.687,-13.207,-0.775
129.670278,1.373,-12.641,-0.596
129.68001,0.981,-12.164,-0.591
129.689739,0.628,-11.744,-0.716
129.699468,0.353,-11.228,-0.705
129.709197,0.118,-10.596,-0.673
129.718926,-0.039,-9.712,-0.717
129.728655,-0.118,-8.79,-0.753
129.738384,-0.157,-7.912,-0.758
129.748113,-0.196,-7.26,-0.842
129.757842,-0.157,-6.524,-0.951
129.767571,-0.118,-5.865,-1.074
129.7773,-0.118,-5.367,-1.185
129.787029,-0.157,-4.89,-1.181
129.796758,-0.118,-4.483,-1.229
129.806487,-0.118,-4.147,-1.329
129.816216,-0.078,-4.043,-1.47
129.825916,-0.078,-4.24,-1.704
129.835616,0,-4.434,-1.738
129.845316,0.118,-4.497,-1.829
129.855016,0.275,-4.568,-1.881
129.864716,0.431,-4.49,-1.867
129.874416,0.628,-4.395,-1.731
129.884116,0.824,-4.254,-1.626
129.893816,1.02,-4.131,-1.645
129.903516,1.255,-4.22,-1.82
129.913216,1.373,-4.579,-2.042
129.922916,1.491,-5.152,-2.183
129.932616,1.569,-5.865,-2.428
129.942316,1.687,-6.554,-2.59
129.952016,1.687,-6.954,-2.58
129.961689,1.608,-7.013,-2.471
129.971362,1.569,-6.949,-2.38
129.981035,1.373,-6.847,-2.283
129.990708,1.177,-7.097,-2.446
130.000381,0.981,-7.906,-2.828
130.010054,0.667,-9.369,-3.564
130.019727,0.392,-11.303,-4.343
130.0294,-0.157,-13.073,-4.695
130.039073,-0.549,-13.912,-4.684
130.048746,-0.745,-13.589,-4.706
130.058419,-0.981,-12.753,-4.479
130.068092,-1.412,-11.662,-3.889
130.077765,-2.04,-10.746,-3.209
130.087438,-2.628,-11.103,-3.671
130.097114,-2.785,-13.212,-5.038
130.10679,-3.138,-16.178,-5.84
130.116466,-3.687,-17.552,-5.047
130.126142,-3.491,-16.705,-4.658
130.135818,-3.334,-15.434,-4.633
130.145494,-3.687,-14.494,-4.547
130.15517,-3.883,-14.578,-4.522
130.164846,-3.883,-15.112,-4.656
130.174522,-3.766,-15.396,-4.627
130.184198,-3.57,-15.273,-4.645
130.193874,-3.334,-14.982,-4.713
130.20355,-3.02,-14.391,-4.45
130.213226,-2.667,-13.503,-4.293
130.22289,-2.471,-12.512,-4.038
130.232554,-2.275,-11.43,-3.848
130.242218,-1.961,-10.46,-3.477
130.251882,-1.687,-9.508,-3.23
130.261546,-1.451,-8.703,-3.048
130.27121,-1.177,-8.047,-2.932
130.280874,-0.981,-7.545,-2.844
130.290538,-0.902,-7.242,-2.751
130.300202,-0.941,-7.063,-2.639
130.309866,-0.902,-6.936,-2.458
130.31953,-0.863,-6.995,-2.349
130.329194,-0.902,-6.86,-2.205
130.338858,-0.902,-6.674,-2.133
130.348522,-0.941,-6.488,-2.06
130.358175,-0.941,-6.224,-1.974
130.367828,-0.941,-5.94,-2.003
130.377481,-0.981,-5.631,-1.949
130.387134,-1.059,-5.406,-1.869
130.396787,-1.138,-4.963,-1.672
130.40644,-1.177,-4.449,-1.422
130.416093,-1.177,-3.909,-1.326
130.425746,-1.216,-3.438,-1.283
130.435399,-1.255,-3.27,-1.333
130.445052,-1.334,-3.656,-1.402
130.454705,-1.412,-4.165,-1.451
130.464358,-1.451,-4.615,-1.61
130.474011,-1.491,-5.174,-1.829
130.483664,-1.569,-5.695,-2.04
130.4933,-1.648,-6.331,-2.271
130.502936,-1.569,-6.929,-2.496
130.512572,-1.53,-7.681,-2.748
130.522208,-1.53,-8.247,-2.928
130.531844,-1.451,-8.542,-3.06
130.54148,-1.373,-8.419,-3.078
130.551116,-1.216,-7.91,-3.028
130.560752,-1.098,-7.581,-3.089
130.570388,-0.902,-7.829,-3.491
130.580024,-0.824,-8.926,-4.044
130.58966,-0.785,-10.142,-4.377
130.599296,-0.51,-11.446,-4.886
130.608932,-0.431,-12.687,-5.304
130.618568,-0.314,-13.21,-5.277
130.628214,-0.157,-13.158,-5.347
130.63786,-0.039,-12.635,-5.375
130.647506,0,-12.203,-5.338
130.657152,0,-11.953,-5.175
130.666798,-0.039,-12.017,-5.266
130.676444,-0.078,-12.787,-5.64
130.68609,0,-14.16,-6.44
130.695736,-0.078,-15.469,-6.472
130.705382,0,-15.525,-5.924
130.715028,0.314,-14.735,-5.665
130.724674,0.431,-13.805,-5.74
130.73432,0.431,-13.398,-5.788
130.743966,0.471,-13.696,-5.681
130.753627,0.431,-14.007,-5.497
130.763288,0.471,-13.803,-5.302
130.772949,0.51,-13.16,-5.109
130.78261,0.471,-12.369,-4.85
130.792271,0.431,-11.701,-4.573
130.801932,0.392,-11.187,-4.323
130.811593,0.353,-10.681,-4.034
130.821254,0.392,-10.128,-3.777
130.830915,0.51,-9.453,-3.539
130.840576,0.706,-8.817,-3.307
130.850237,0.981,-8.392,-3.232
130.859898,1.216,-8.174,-3.114
130.869559,1.294,-8.131,-2.907
130.87922,1.255,-8.067,-2.817
130.888884,1.138,-7.772,-2.685
130.898548,1.02,-7.297,-2.442
130.908212,0.902,-6.686,-2.294
130.917876,0.863,-6.19,-2.167
130.92754,0.745,-5.842,-2.106
130.937204,0.667,-5.611,-2.065
130.946868,0.628,-5.59,-2.181
130.956532,0.628,-5.668,-2.194
130.966196,0.549,-5.681,-2.117
130.97586,0.51,-5.586,-1.981
130.985524,0.392,-5.354,-1.94
130.995188,0.431,-5.006,-1.879
131.004852,0.431,-5.006,-1.879
131.014516,0.392,-4.793,-1.96
131.024169,0.431,-4.772,-2.076
131.033822,0.588,-5.068,-2.208
131.043475,0.706,-5.433,-2.392
131.053128,0.706,-5.838,-2.583
131.062781,0.588,-6.236,-2.812
131.072434,0.431,-6.62,-3.119
131.082087,0.196,-6.947,-3.296
131.09174,-0.078,-7.049,-3.394
131.101393,-0.275,-6.908,-3.289
131.111046,-0.471,-6.631,-3.28
131.120699,-0.549,-6.411,-3.401
131.130352,-0.588,-6.481,-3.453
131.140005,-0.628,-6.943,-3.773
131.149658,-0.51,-8.338,-4.896
131.159293,-0.588,-10.265,-5.713
131.168928,-1.216,-12.242,-6.022
131.178563,-1.608,-13.485,-6.202
131.188198,-1.687,-13.617,-6.583
131.197833,-1.687,-13.208,-6.87
131.207468,-1.687,-12.871,-6.97
131.217103,-1.765,-12.71,-6.981
131.226738,-1.883,-12.422,-6.811
131.236373,-2.157,-12.408,-6.888
131.246008,-2.511,-13.037,-7.158
131.255643,-2.942,-13.905,-7.431
131.265278,-3.06,-14.851,-7.717
131.274913,-3.413,-15.38,-7.651
131.284548,-3.648,-15.112,-7.365
131.294159,-3.727,-14.51,-6.94
131.30377,-3.687,-13.676,-6.474
131.313381,-3.452,-13.067,-6.088
131.322992,-2.981,-12.599,-5.806
131.332603,-2.589,-12.233,-5.622
131.342214,-2.275,-11.894,-5.284
131.351825,-1.922,-11.356,-4.95
131.361436,-1.687,-10.406,-4.464
131.371047,-1.373,-9.326,-4.034
131.380658,-1.138,-8.233,-3.682
131.390269,-0.863,-7.365,-3.41
131.39988,-0.667,-6.761,-3.224
131.409491,-0.549,-6.408,-2.962
131.419102,-0.588,-6.147,-2.637
131.428699,-0.706,-5.931,-2.281
131.438296,-0.667,-5.47,-1.96
131.447893,-0.785,-5.047,-1.647
131.45749,-0.745,-4.643,-1.456
131.467087,-0.863,-4.406,-1.215
131.476684,-1.02,-4.472,-1.067
131.486281,-1.098,-4.956,-1.033
131.495878,-1.177,-5.715,-1.247
131.505475,-1.216,-6.635,-1.449
131.515072,-1.255,-7.581,-1.735
131.524669,-1.177,-8.456,-1.969
131.534266,-1.059,-9.053,-2.194
131.543863,-0.863,-9.374,-2.41
131.55346,-0.824,-9.469,-2.546
131.563057,-0.824,-9.66,-2.819
131.572658,-0.667,-10.237,-3.159
131.582259,-0.667,-11.058,-3.702
131.59186,-0.314,-12.601,-4.891
131.601461,-0.745,-14.523,-5.508
131.611062,-0.863,-14.975,-5.429
131.620663,-0.667,-14.639,-5.529
131.630264,-0.588,-13.589,-5.384
131.639865,-0.549,-12.355,-4.927
131.649466,-0.353,-11.385,-4.557
131.659067,-0.157,-11.183,-4.8
131.668668,-0.078,-11.658,-5.043
131.678269,-0.039,-12.367,-5.088
131.68787,-0.039,-12.678,-4.904
131.697456,-0.118,-12.262,-4.552
131.707042,-0.118,-11.467,-4.093
131.716628,-0.196,-10.658,-3.712
131.726214,-0.471,-10.01,-3.318
131.7358,-0.667,-9.753,-3.194
131.745386,-0.902,-9.792,-3.2
131.754972,-1.216,-9.851,-3.091
131.764558,-1.491,-9.737,-2.832
131.774144,-1.648,-9.462,-2.585
131.78373,-1.804,-9.065,-2.355
131.793316,-1.883,-8.506,-2.137
131.802902,-1.726,-7.792,-1.892
131.812488,-1.53,-7.065,-1.724
131.822074,-1.255,-6.556,-1.674
131.831679,-1.138,-6.388,-1.724
131.841284,-1.059,-6.426,-1.731
131.850889,-0.902,-6.708,-1.94
131.860494,-0.706,-6.979,-1.987
131.870099,-0.471,-7.229,-2.151
131.879704,-0.196,-7.317,-2.326
131.889309,0.078,-7.283,-2.519
131.898914,0.314,-7.365,-2.733
131.908519,0.588,-7.538,-2.883
131.918124,0.863,-7.71,-3.032
131.927729,1.098,-7.87,-3.26
131.937334,1.216,-8.042,-3.41
131.946939,1.373,-8.247,-3.605
131.956553,1.334,-8.342,-3.741
131.966167,1.373,-8.399,-3.871
131.975781,1.334,-8.515,-3.891
131.985395,1.138,-8.52,-4.091
131.995009,0.824,-8.615,-4.228
132.004623,0.51,-8.924,-4.282
132.014237,0.314,-9.399,-4.525
132.023851,0.118,-9.894,-4.652
132.033465,-0.078,-10.351,-4.773
132.043079,-0.275,-10.628,-4.782
132.052693,-0.51,-10.403,-4.702
132.062307,-0.667,-9.894,-4.652
132.071921,-0.902,-9.501,-4.623
132.081535,-1.177,-9.635,-4.766
132.091191,-1.569,-10.438,-5.186
132.100847,-1.844,-11.56,-5.822
132.110503,-2.157,-12.508,-5.87
132.120159,-2.354,-12.912,-6.061
132.129815,-2.55,-12.742,-6.349
132.139471,-2.824,-11.997,-6.059
132.149127,-3.02,-10.826,-5.693
132.158783,-3.295,-9.663,-5.289
132.168439,-3.648,-8.595,-5.021
132.178095,-4.04,-8.181,-5.107
132.187751,-4.393,-8.361,-5.218
132.197407,-4.629,-8.972,-5.366
132.207063,-4.786,-9.358,-5.434
132.21674,-4.746,-9.61,-5.359
132.226417,-4.59,-9.347,-5.273
132.236094,-4.511,-9.001,-4.973
132.245771,-4.315,-8.572,-4.698
132.255448,-4.04,-8.206,-4.514
132.265125,-3.766,-7.981,-4.434
132.274802,-3.413,-7.833,-4.369
132.284479,-3.06,-7.72,-4.11
132.294156,-2.667,-7.645,-3.857
132.303833,-2.236,-7.633,-3.696
132.31351,-1.844,-7.474,-3.469
132.323187,-1.569,-7.333,-3.364
132.332864,-1.451,-7.27,-3.273
132.342541,-1.373,-7.431,-3.262
132.35223,-1.451,-7.617,-3.335
132.361919,-1.451,-7.96,-3.196
132.371608,-1.412,-8.147,-3.269
132.381297,-1.491,-8.238,-3.205
132.390986,-1.53,-8.238,-3.205
132.400675,-1.569,-8.199,-3.198
132.410364,-1.608,-8.224,-3.282
132.420053,-1.648,-8.256,-3.328
132.429742,-1.726,-8.256,-3.328
132.439431,-1.804,-8.231,-3.244
132.44912,-1.922,-8.269,-3.251
132.458809,-2.04,-8.322,-3.18
132.468498,-2.118,-8.444,-3.162
132.478187,-2.236,-8.567,-3.144
132.487876,-2.354,-8.567,-3.144
132.497565,-2.393,-8.51,-3.014
132.507254,-2.354,-8.567,-3.144
132.516943,-2.354,-8.965,-3.373
132.526632,-2.432,-9.453,-3.539
132.536321,-2.55,-9.937,-3.505
132.54601,-2.667,-10.221,-3.475
132.555699,-2.746,-10.299,-3.489
132.565388,-2.746,-10.376,-3.502
132.575077,-2.628,-10.428,-3.432
132.584766,-2.393,-10.505,-3.446
132.594455,-2.001,-10.653,-3.512
132.604144,-1.648,-10.921,-3.798
132.613833,-1.255,-11.621,-4.12
132.623559,-0.824,-12.521,-4.438
132.633285,-0.588,-12.498,-4.116
132.643011,-0.392,-11.767,-3.748
132.652737,-0.196,-11.635,-4.043
132.662463,-0.235,-11.801,-4.232
132.672189,-0.431,-11.976,-4.143
132.681915,-0.431,-11.689,-3.734
132.691641,-0.118,-10.662,-3.234
132.701367,0.039,-9.308,-2.557
132.711093,0.314,-8.06,-2.178
132.720819,0.667,-7.481,-2.076
132.730545,0.824,-7.879,-2.305
132.740271,0.785,-8.967,-2.457
132.750028,0.706,-9.978,-2.596
132.759785,0.667,-10.596,-2.705
132.769542,0.628,-10.319,-2.696
132.779299,0.628,-9.758,-2.716
132.789056,0.51,-9.172,-2.653
132.798813,0.353,-8.765,-2.701
132.80857,0.235,-8.558,-2.744
132.818327,0.157,-8.59,-2.789
132.828084,0.078,-8.653,-2.88
132.837841,0.078,-8.626,-3.035
132.847598,0.039,-8.613,-3.112
132.857355,0,-8.69,-3.126
132.867112,-0.078,-8.697,-3.087
132.876869,-0.118,-8.619,-3.073
132.886626,-0.157,-8.419,-3.078
132.896383,-0.196,-8.265,-3.051
132.90614,-0.235,-8.272,-3.012
132.915897,-0.392,-8.297,-3.096
132.925654,-0.51,-8.426,-3.039
132.935411,-0.588,-8.465,-3.046
132.945168,-0.628,-8.465,-3.046
132.954925,-0.667,-8.504,-3.053
132.964682,-0.745,-8.542,-3.06
132.974439,-0.745,-8.683,-3.164
132.984196,-0.745,-8.908,-3.244
132.993953,-0.745,-8.985,-3.257
133.00371,-0.706,-8.992,-3.219
133.013467,-0.745,-8.922,-3.166
133.023224,-0.706,-8.838,-3.191
133.032997,-0.706,-8.644,-3.157
133.04277,-0.745,-8.69,-3.126
133.052543,-0.824,-8.767,-3.139
133.062316,-0.785,-9.076,-3.194
133.072089,-0.706,-9.385,-3.248
133.081862,-0.549,-9.483,-3.146
133.091635,-0.392,-9.258,-3.066
133.101408,-0.275,-9.026,-3.025
133.111181,-0.157,-8.981,-3.057
133.120954,-0.118,-9.026,-3.025
133.130727,-0.118,-9.019,-3.064
133.1405,-0.078,-9.115,-3.2
133.150273,-0.118,-9.153,-3.207
133.160038,-0.078,-9.224,-3.26
133.169803,-0.078,-9.172,-3.33
133.179568,-0.118,-8.94,-3.289
133.189333,-0.196,-8.778,-3.3
133.199098,-0.392,-8.772,-3.339
133.208863,-0.549,-9.138,-3.523
133.218628,-0.706,-10.292,-4.205
133.228393,-0.941,-12.34,-5.243
133.238158,-1.412,-14.176,-5.447
133.247923,-1.844,-14.039,-4.865
133.257688,-1.726,-12.905,-4.745
133.267453,-1.687,-11.917,-4.929
133.277218,-2.001,-11.426,-5.002
133.286983,-2.275,-11.615,-4.836
133.296756,-2.55,-11.596,-4.713
133.306529,-2.785,-11.14,-4.593
133.316302,-2.942,-10.447,-4.232
133.326075,-3.06,-9.715,-3.864
133.335848,-3.138,-8.983,-3.496
133.345621,-3.217,-8.244,-3.166
133.355394,-3.138,-7.71,-3.032
133.365167,-3.02,-7.504,-3.076
133.37494,-2.864,-7.665,-3.064
133.384713,-2.707,-7.879,-2.982
133.394486,-2.511,-8.124,-2.946
133.404259,-2.314,-8.194,-2.998
133.414032,-2.04,-8.213,-3.121
133.423787,-1.804,-8.297,-3.096
133.433542,-1.648,-8.465,-3.046
133.443297,-1.569,-8.678,-2.964
133.453052,-1.491,-8.853,-2.876
133.462807,-1.412,-8.801,-2.946
133.472562,-1.373,-8.717,-2.971
133.482317,-1.373,-8.678,-2.964
133.492072,-1.373,-8.717,-2.971
133.501827,-1.373,-8.717,-2.971
133.511582,-1.334,-8.678,-2.964
133.521337,-1.255,-8.703,-3.048
133.531092,-1.138,-8.883,-3.16
133.540847,-1.098,-9.069,-3.232
133.550602,-1.02,-9.217,-3.298
133.560372,-1.02,-9.308,-3.235
133.570142,-0.941,-9.288,-3.35
133.579912,-0.981,-9.242,-3.382
133.589682,-0.941,-9.313,-3.434
133.599452,-0.981,-9.338,-3.519
133.609222,-0.941,-9.376,-3.525
133.618992,-0.902,-9.433,-3.655
133.628762,-0.863,-9.419,-3.732
133.638532,-0.824,-9.399,-3.848
133.648302,-0.785,-9.385,-3.925
133.658072,-0.824,-9.301,-3.95
133.667842,-0.902,-9.14,-3.962
133.677612,-0.981,-8.947,-3.928
133.687374,-1.138,-8.747,-3.932
133.697136,-1.373,-8.599,-3.866
133.706898,-1.608,-8.529,-3.814
133.71666,-1.765,-8.529,-3.814
133.726422,-2.001,-8.542,-3.737
133.736184,-2.118,-8.601,-3.628
133.745946,-2.157,-8.544,-3.498
133.755708,-2.157,-8.488,-3.369
133.76547,-2.118,-8.456,-3.323
133.775232,-2.118,-8.554,-3.221
133.784994,-2.079,-8.856,-3.314
133.794756,-2.079,-9.222,-3.498
133.804518,-2.079,-9.485,-3.584
133.81428,-2.001,-9.492,-3.546
133.824023,-1.844,-9.358,-3.403
133.833766,-1.844,-9.235,-3.421
133.843509,-1.765,-9.253,-3.544
133.853252,-1.687,-9.376,-3.525
133.862995,-1.491,-9.472,-3.662
133.872738,-1.255,-9.676,-3.857
133.882481,-1.02,-10.067,-4.125
133.892224,-0.706,-10.767,-4.448
133.901967,-0.51,-11.39,-4.757
133.91171,-0.314,-11.54,-4.584
133.921453,-0.196,-11.276,-4.498
133.931196,-0.118,-11.46,-4.809
133.940939,-0.275,-11.903,-5.007
133.950682,-0.353,-12.489,-5.07
133.960399,-0.471,-12.774,-5.041
133.970116,-0.431,-12.453,-4.825
133.979833,-0.392,-11.869,-4.523
133.98955,-0.392,-11.137,-4.155
133.999267,-0.353,-10.381,-3.702
134.008984,-0.235,-9.719,-3.387
134.018701,-0.118,-9.09,-3.116
134.028418,-0.118,-8.467,-2.807
134.038135,-0.078,-7.947,-2.596
134.047852,-0.039,-7.631,-2.58
134.057569,-0.039,-7.61,-2.696
134.067286,-0.039,-8.022,-2.848
134.077003,-0.118,-8.408,-2.917
134.08672,-0.235,-8.485,-2.93
134.096442,-0.314,-8.394,-2.994
134.106164,-0.471,-8.265,-3.051
134.115886,-0.392,-8.219,-3.082
134.125608,-0.314,-8.297,-3.096
134.13533,-0.157,-8.413,-3.116
134.145052,-0.118,-8.483,-3.169
134.154774,-0.196,-8.508,-3.253
134.164496,-0.196,-8.758,-3.416
134.174218,-0.314,-8.933,-3.328
134.18394,-0.392,-9.01,-3.341
134.193662,-0.431,-9.113,-3.439
134.203384,-0.549,-9.106,-3.478
134.213106,-0.628,-9.306,-3.473
134.222817,-0.824,-9.262,-3.266
134.232528,-0.863,-9.172,-3.33
134.242239,-0.981,-8.901,-3.282
134.25195,-0.941,-9.017,-3.303
134.261661,-0.981,-9.288,-3.35
134.271372,-1.02,-9.049,-3.348
134.281083,-0.981,-8.765,-3.378
134.290794,-0.981,-8.59,-3.466
134.300505,-1.059,-8.558,-3.421
134.310216,-1.059,-8.558,-3.421
134.319927,-1.02,-8.474,-3.446
134.329638,-0.863,-8.538,-3.537
134.339349,-0.785,-8.833,-3.669
134.34906,-0.667,-9.11,-3.678
134.358734,-0.549,-9.226,-3.698
134.368408,-0.549,-9.188,-3.691
134.378082,-0.51,-9.072,-3.671
134.387756,-0.549,-8.847,-3.591
134.39743,-0.549,-8.822,-3.507
134.407104,-0.51,-8.694,-3.325
134.416778,-0.471,-8.329,-3.141
134.426452,-0.471,-8.026,-3.048
134.436126,-0.353,-7.922,-3.189
134.4458,-0.275,-8.192,-3.237
134.455474,-0.235,-8.604,-3.389
134.465148,-0.235,-8.797,-3.423
134.474822,-0.118,-8.976,-3.535
134.484496,-0.078,-9.374,-3.764
134.494152,-0.078,-9.933,-3.982
134.503808,-0.118,-10.326,-4.012
134.513464,-0.235,-10.308,-3.889
134.52312,-0.275,-10.031,-3.88
134.532776,-0.314,-9.837,-3.846
134.542432,-0.353,-9.837,-3.846
134.552088,-0.353,-10.031,-3.88
134.561744,-0.392,-10.449,-3.993
134.5714,-0.392,-10.906,-4.114
134.581056,-0.51,-11.387,-4.318
134.590712,-0.667,-11.651,-4.404
134.600368,-0.863,-11.408,-4.202
134.610024,-0.981,-10.958,-4.043
134.619688,-1.098,-10.576,-4.175
134.629352,-1.294,-10.337,-4.173
134.639016,-1.451,-10.292,-4.205
134.64868,-1.648,-10.665,-4.35
134.658344,-1.804,-10.935,-4.398
134.668008,-2.001,-10.84,-4.261
134.677672,-2.197,-10.615,-4.182
134.687336,-2.314,-10.351,-4.096
134.697,-2.511,-10.094,-3.971
134.706664,-2.55,-9.742,-3.709
134.716328,-2.511,-9.228,-3.459
134.725992,-2.432,-8.554,-3.221
134.735656,-2.393,-7.897,-3.105
134.745304,-2.314,-7.613,-3.135
134.754952,-2.197,-7.926,-3.389
134.7646,-2.197,-8.569,-3.582
134.774248,-2.236,-8.956,-3.65
134.783896,-2.236,-9.11,-3.678
134.793544,-2.197,-8.924,-3.605
134.803192,-2.236,-8.538,-3.537
134.81284,-2.197,-8.401,-3.632
134.822488,-2.236,-8.633,-3.673
134.832136,-2.236,-8.924,-3.605
134.841784,-2.236,-9.078,-3.632
134.851432,-2.236,-9.078,-3.632
134.86108,-2.197,-9.019,-3.741
134.870728,-2.197,-8.929,-3.805
134.880385,-2.118,-8.922,-3.844
134.890042,-2.001,-8.794,-3.662
134.899699,-1.804,-8.615,-3.55
134.909356,-1.53,-8.485,-3.607
134.919013,-1.216,-8.356,-3.664
134.92867,-0.824,-8.542,-3.737
134.938327,-0.549,-8.794,-3.662
134.947984,-0.51,-9.008,-3.58
134.957641,-0.667,-8.797,-3.423
134.967298,-0.902,-8.474,-3.446
134.976955,-0.902,-8.254,-3.566
134.986612,-0.941,-8.279,-3.65
134.996269,-0.941,-8.433,-3.678
135.005923,-0.902,-8.342,-3.741
135.015577,-0.902,-8.174,-3.791
135.025231,-0.863,-8.02,-3.764
135.034885,-0.863,-7.936,-3.789
135.044539,-0.863,-7.89,-3.821
135.054193,-0.863,-7.845,-3.853
135.063847,-0.863,-7.901,-3.982
135.073501,-0.824,-8.049,-4.048
135.083155,-0.785,-8.249,-4.044
135.092809,-0.706,-8.442,-4.078
135.102463,-0.628,-8.488,-4.046
135.112117,-0.549,-8.501,-3.969
135.121771,-0.51,-8.47,-3.923
135.131425,-0.471,-8.399,-3.871
135.141103,-0.549,-8.34,-3.98
135.150781,-0.628,-8.463,-3.962
135.160459,-0.628,-8.745,-4.171
135.170137,-0.588,-9.085,-4.271
135.179815,-0.588,-9.497,-4.423
135.189493,-0.51,-9.831,-4.561
135.199171,-0.51,-9.947,-4.582
135.208849,-0.471,-9.869,-4.568
135.218527,-0.471,-9.701,-4.618
135.228205,-0.549,-9.669,-4.573
135.237883,-0.628,-9.683,-4.496
135.247561,-0.667,-9.715,-4.541
135.257239,-0.706,-9.933,-4.659
135.266929,-0.667,-10.478,-4.955
135.276619,-0.588,-11.076,-5.179
135.286309,-0.588,-11.269,-5.213
135.295999,-0.51,-10.949,-4.998
135.305689,-0.353,-10.376,-4.857
135.315379,-0.235,-10.149,-5.016
135.325069,-0.118,-10.488,-5.354
135.334759,0,-11.112,-5.425
135.344449,0.314,-11.558,-5.384
135.354139,0.667,-11.372,-5.311
135.363829,1.02,-10.953,-5.198
135.373519,1.255,-10.497,-5.077
135.383209,1.491,-10.106,-4.809
135.392899,1.648,-9.574,-4.437
135.402611,1.804,-9.008,-4.257
135.412323,1.844,-8.385,-3.948
135.422035,1.883,-7.717,-3.671
135.431747,1.883,-7.274,-3.473
135.441459,1.844,-6.965,-3.419
135.451171,1.765,-7.029,-3.51
135.460883,1.648,-7.37,-3.61
135.470595,1.53,-7.756,-3.678
135.480307,1.373,-8.026,-3.726
135.490019,1.334,-8.02,-3.764
135.499731,1.294,-8.051,-3.81
135.509443,1.138,-8.09,-3.816
135.519155,1.02,-8.097,-3.778
135.528867,0.941,-8.129,-3.823
135.538579,0.824,-8.308,-3.935
135.548306,0.785,-8.572,-4.021
135.558033,0.667,-8.944,-4.166
135.56776,0.549,-9.349,-4.357
135.577487,0.51,-9.517,-4.307
135.587214,0.431,-9.44,-4.293
135.596941,0.353,-9.26,-4.182
135.606668,0.235,-9.004,-4.057
135.616395,0.078,-8.817,-3.984
135.626122,-0.039,-8.708,-3.925
135.635849,-0.235,-8.701,-3.964
135.645576,-0.392,-8.708,-3.925
135.655303,-0.549,-8.708,-3.925
135.66503,-0.667,-8.701,-3.964
135.674744,-0.745,-8.67,-3.919
135.684458,-0.745,-8.554,-3.898
135.694172,-0.745,-8.42,-3.755
135.703886,-0.745,-8.174,-3.791
135.7136,-0.745,-7.936,-3.789
135.723314,-0.706,-7.774,-3.801
135.733028,-0.667,-7.736,-3.794
135.742742,-0.628,-7.806,-3.846
135.752456,-0.549,-7.922,-3.866
135.76217,-0.549,-7.954,-3.912
135.771884,-0.588,-7.954,-3.912
135.781598,-0.588,-7.863,-3.975
135.791312,-0.628,-7.856,-4.014
135.801026,-0.667,-7.895,-4.021
135.81072,-0.667,-7.958,-4.112
135.820414,-0.628,-8.158,-4.107
135.830108,-0.549,-8.485,-4.284
135.839802,-0.392,-8.788,-4.378
135.849496,-0.157,-9.058,-4.425
135.85919,0.039,-9.213,-4.452
135.868884,0.275,-9.251,-4.459
135.878578,0.431,-9.181,-4.407
135.888272,0.628,-9.104,-4.393
135.897966,0.824,-9.079,-4.309
135.90766,0.981,-9.124,-4.278
135.917354,1.138,-9.317,-4.312
135.927048,1.216,-9.433,-4.332
135.936742,1.334,-9.613,-4.443
135.946446,1.334,-9.883,-4.491
135.95615,1.294,-10.044,-4.48
135.965854,1.138,-10.019,-4.396
135.975558,1.02,-9.865,-4.368
135.985262,0.863,-9.685,-4.257
135.994966,0.745,-9.544,-4.153
136.00467,0.667,-9.699,-4.18
136.014374,0.588,-9.931,-4.221
136.024078,0.549,-10.233,-4.314
136.033782,0.588,-10.644,-4.466
136.043486,0.51,-11.094,-4.625
136.05319,0.471,-11.378,-4.595
136.062894,0.353,-11.462,-4.57
136.072582,0.196,-11.41,-4.641
136.08227,0.078,-11.346,-4.55
136.091958,0,-11.206,-4.445
136.101646,-0.157,-11.019,-4.373
136.111334,-0.353,-10.865,-4.345
136.121022,-0.549,-10.787,-4.332
136.13071,-0.785,-10.64,-4.266
136.140398,-1.02,-10.024,-3.918
136.150086,-1.216,-9.106,-3.478
136.159774,-1.294,-8.231,-3.244
136.169462,-1.451,-7.701,-3.31
136.17915,-1.648,-7.822,-3.53
136.188838,-1.765,-8.472,-3.685
136.198526,-1.883,-9.135,-3.762
136.208199,-2.04,-9.399,-3.848
136.217872,-2.079,-9.315,-3.873
136.227545,-2.118,-9.083,-3.832
136.237218,-2.079,-8.844,-3.83
136.246891,-2.118,-8.851,-3.791
136.256564,-2.157,-8.851,-3.791
136.266237,-2.118,-8.89,-3.798
136.27591,-2.001,-8.876,-3.875
136.285583,-1.922,-8.901,-3.959
136.295256,-1.804,-8.908,-3.921
136.304929,-1.687,-8.838,-3.869
136.314602,-1.569,-8.735,-3.771
136.324275,-1.491,-8.535,-3.775
136.333948,-1.373,-8.47,-3.923
136.343638,-1.294,-8.276,-3.889
136.353328,-1.059,-8.283,-3.85
136.363018,-0.941,-8.149,-3.707
136.372708,-0.824,-8.174,-3.791
136.382398,-0.667,-7.956,-3.673
136.392088,-0.471,-7.84,-3.653
136.401778,-0.353,-7.686,-3.626
136.411468,-0.235,-7.711,-3.71
136.421158,-0.118,-7.742,-3.755
136.430848,-0.118,-7.89,-3.821
136.440538,-0.118,-8.101,-3.978
136.450228,-0.118,-8.301,-3.973
136.459918,-0.078,-8.301,-3.973
136.469595,-0.157,-8.108,-3.939
136.479272,-0.235,-7.947,-3.95
136.488949,-0.353,-7.838,-3.891
136.498626,-0.431,-7.767,-3.839
136.508303,-0.51,-7.729,-3.832
136.51798,-0.628,-7.729,-3.832
136.527657,-0.745,-7.792,-3.923
136.537334,-0.824,-7.979,-3.996
136.547011,-0.824,-8.274,-4.128
136.556688,-0.863,-8.608,-4.266
136.566365,-0.902,-8.731,-4.248
136.576042,-0.902,-8.738,-4.209
136.585719,-1.02,-8.808,-4.262
136.595396,-1.138,-9.065,-4.387
136.605073,-1.294,-9.476,-4.539
136.61475,-1.412,-9.965,-4.705
136.624434,-1.491,-10.044,-4.48
136.634118,-1.569,-10.074,-4.764
136.643802,-1.608,-10.313,-4.766
136.653486,-1.608,-10.417,-4.625
136.66317,-1.491,-10.481,-4.716
136.672854,-1.451,-10.826,-5.016
136.682538,-1.412,-11.603,-5.352
136.692222,-1.412,-12.319,-5.359
136.701906,-1.334,-12.096,-5.041
136.71159,-1.02,-11.46,-4.809
136.721274,-0.706,-11.026,-5.011
136.730958,-0.588,-11.501,-5.254
136.740629,-0.588,-12.058,-5.034
136.7503,-0.235,-12.267,-4.752
136.759971,0.039,-11.946,-4.536
136.769642,0.118,-11.053,-4.18
136.779313,0.275,-10.09,-3.771
136.788984,0.471,-9.056,-3.31
136.798655,0.549,-8.158,-2.753
136.808326,0.706,-7.69,-2.471
136.817997,0.745,-7.626,-2.38
136.827668,0.667,-8.16,-2.514
136.837339,0.588,-8.824,-2.592
136.84701,0.51,-9.185,-2.576
136.856681,0.549,-9.333,-2.641
136.866352,0.51,-9.112,-2.762
136.876039,0.431,-8.803,-2.707
136.885726,0.353,-8.551,-2.782
136.895413,0.235,-8.615,-2.873
136.9051,0.118,-8.865,-3.037
136.914787,0.039,-8.974,-3.096
136.924474,0,-8.922,-3.166
136.934161,-0.039,-8.817,-3.307
136.943848,-0.078,-8.726,-3.371
136.953535,-0.235,-8.765,-3.378
136.963222,-0.353,-8.797,-3.423
136.972909,-0.51,-8.829,-3.469
136.982596,-0.667,-8.829,-3.469
136.992283,-0.785,-8.674,-3.441
137.001989,-0.863,-8.642,-3.396
137.011695,-0.902,-8.397,-3.432
137.021401,-0.941,-8.133,-3.346
137.031107,-0.941,-7.888,-3.382
137.040813,-1.02,-7.829,-3.491
137.050519,-1.098,-7.854,-3.576
137.060225,-1.098,-7.938,-3.551
137.069931,-1.098,-7.931,-3.589
137.079637,-1.177,-7.847,-3.614
137.089343,-1.216,-7.879,-3.66
137.099049,-1.255,-7.931,-3.589
137.108755,-1.138,-7.867,-3.498
137.118461,-1.138,-7.861,-3.537
137.128167,-1.177,-8.117,-3.662
137.13787,-1.177,-8.338,-3.541
137.147573,-1.138,-8.531,-3.575
137.157276,-1.098,-8.64,-3.635
137.166979,-1.059,-8.633,-3.673
137.176682,-1.02,-8.601,-3.628
137.186385,-0.981,-8.538,-3.537
137.196088,-0.902,-8.506,-3.491
137.205791,-0.941,-8.667,-3.48
137.215494,-0.981,-8.822,-3.507
137.225197,-0.902,-9.067,-3.471
137.2349,-0.981,-9.197,-3.414
137.244603,-1.059,-9.292,-3.55
137.254306,-1.216,-9.69,-3.78
137.264009,-1.373,-10.135,-3.739
137.27374,-1.294,-10.521,-3.807
137.283471,-1.138,-10.631,-3.866
137.293202,-1.02,-10.649,-3.989
137.302933,-0.941,-10.61,-3.982
137.312664,-0.863,-10.642,-4.027
137.322395,-0.941,-10.346,-3.896
137.332126,-1.059,-10.262,-3.921
137.341857,-1.294,-10.494,-3.961
137.351588,-1.451,-10.99,-4.089
137.361319,-1.648,-11.458,-4.37
137.37105,-1.804,-12.133,-4.609
137.380781,-2.04,-12.128,-4.409
137.390512,-2.118,-11.724,-4.218
137.400262,-2.197,-11.535,-4.384
137.410012,-2.393,-11.38,-4.357
137.419762,-2.55,-11.362,-4.234
137.429512,-2.628,-11.324,-4.227
137.439262,-2.707,-10.694,-3.957
137.449012,-2.707,-9.762,-3.593
137.458762,-2.864,-8.719,-3.41
137.468512,-3.06,-8.081,-3.416
137.478262,-3.217,-8.535,-3.775
137.488012,-3.413,-9.315,-3.873
137.497762,-3.57,-9.767,-3.793
137.507512,-3.57,-9.626,-3.689
137.517262,-3.53,-9.078,-3.632
137.527012,-3.452,-8.717,-3.648
137.536761,-3.452,-8.697,-3.764
137.54651,-3.413,-8.924,-3.605
137.556259,-3.334,-9.11,-3.678
137.566008,-3.177,-9.117,-3.639
137.575757,-3.099,-9.085,-3.594
137.585506,-2.864,-8.804,-3.385
137.595255,-2.707,-8.694,-3.325
137.605004,-2.511,-8.617,-3.312
137.614753,-2.354,-8.501,-3.291
137.624502,-2.236,-8.308,-3.257
137.634251,-2.197,-7.96,-3.196
137.644,-2.079,-7.651,-3.142
137.653749,-2.04,-7.476,-3.23
137.663498,-2.079,-7.579,-3.328
137.673226,-2.236,-7.881,-3.421
137.682954,-2.55,-8.095,-3.339
137.692682,-2.667,-8.031,-3.248
137.70241,-2.628,-7.472,-3.03
137.712138,-2.197,-6.949,-3.058
137.721866,-1.765,-6.536,-3.144
137.731594,-1.255,-6.354,-3.271
137.741322,-0.824,-6.456,-3.369
137.75105,-0.392,-6.663,-3.326
137.760778,0.353,-6.972,-3.38
137.770506,1.098,-7.165,-3.414
137.780234,1.765,-7.538,-3.56
137.789962,2.157,-8.031,-3.925
137.79969,2.157,-8.22,-3.76
137.809402,1.961,-8.135,-3.785
137.819114,1.608,-8.12,-4.1
137.828826,1.255,-8.183,-4.191
137.838538,0.824,-8.231,-3.921
137.84825,0.549,-9.11,-4.355
137.857962,0.275,-10.378,-4.618
137.867674,0,-10.812,-4.416
137.877386,-0.118,-10.851,-4.423
137.887098,-0.118,-10.631,-4.543
137.89681,-0.235,-10.469,-4.555
137.906522,-0.275,-10.494,-4.639
137.916234,-0.235,-10.61,-4.659
137.925946,-0.118,-11.053,-4.857
137.935658,-0.078,-12.035,-5.388
137.945378,-0.078,-12.912,-5.384
137.955098,0.196,-12.717,-4.911
137.964818,0.588,-11.767,-4.425
137.974538,0.981,-11.235,-4.729
137.984258,0.941,-11.576,-4.829
137.993978,0.863,-12.249,-4.629
138.003698,0.981,-12.26,-4.113
138.013418,1.138,-11.349,-3.634
138.023138,1.255,-10.262,-3.243
138.032858,1.177,-9.253,-2.866
138.042578,1.177,-8.785,-2.585
138.052298,1.177,-8.619,-2.396
138.062018,1.138,-8.922,-2.489
138.071726,1.255,-9.66,-2.819
138.081434,1.255,-9.887,-2.66
138.091142,0.941,-9.549,-2.321
138.10085,1.177,-9.367,-2.448
138.110558,1.255,-9.476,-2.507
138.120266,1.059,-9.346,-2.564
138.129974,1.177,-8.708,-2.571
138.139682,1.255,-8.558,-2.744
138.14939,1.216,-8.71,-3.01
138.159098,1.098,-8.774,-3.101
138.168806,0.981,-8.631,-3.235
138.178514,0.785,-8.417,-3.316
138.188222,0.628,-8.108,-3.262
138.19793,0.471,-7.908,-3.267
138.207631,0.275,-7.96,-3.196
138.217332,0.157,-8.113,-3.462
138.227033,-0.039,-7.831,-3.253
138.236734,-0.118,-7.554,-3.244
138.246435,-0.196,-7.336,-3.126
138.256136,-0.314,-7.726,-3.394
138.265837,-0.51,-8.108,-3.262
138.275538,-0.667,-7.895,-3.344
138.285239,-0.706,-7.804,-3.407
138.29494,-0.824,-8.163,-3.63
138.304641,-1.02,-8.54,-3.298
138.314342,-1.138,-8.585,-3.266
138.324043,-1.255,-8.515,-3.214
138.333744,-1.294,-8.36,-3.187
138.343419,-1.138,-8.374,-3.11
138.353094,-1.02,-8.381,-3.071
138.362769,-0.863,-8.335,-3.103
138.372444,-0.745,-8.476,-3.207
138.382119,-0.667,-8.631,-3.235
138.391794,-0.588,-8.229,-2.805
138.401469,-0.314,-8.483,-3.169
138.411144,-0.314,-9.013,-3.103
138.420819,-0.353,-9.192,-3.214
138.430494,-0.314,-9.526,-3.353
138.440169,-0.353,-9.699,-3.503
138.449844,-0.353,-9.969,-3.55
138.459519,-0.314,-9.987,-3.673
138.469194,-0.314,-10.019,-3.718
138.478883,-0.275,-10.09,-3.771
138.488572,-0.196,-9.942,-3.705
138.498261,-0.157,-10.083,-3.809
138.50795,-0.196,-10.326,-4.012
138.517639,-0.392,-10.34,-3.934
138.527328,-0.471,-10.312,-4.089
138.537017,-0.549,-10.428,-4.109
138.546706,-0.667,-10.858,-4.384
138.556395,-0.628,-11.801,-4.909
138.566084,-0.824,-12.203,-4.661
138.575773,-0.863,-11.394,-4.279
138.585462,-0.824,-10.524,-4.246
138.595151,-1.059,-10.053,-4.202
138.604832,-1.334,-10.428,-4.109
138.614513,-1.608,-11.196,-4.045
138.624194,-1.961,-11.628,-4.082
138.633875,-2.236,-11.944,-4.098
138.643556,-2.55,-11.828,-4.077
138.653237,-2.942,-11.442,-4.009
138.662918,-3.217,-10.89,-3.752
138.672599,-3.57,-9.96,-3.15
138.68228,-3.805,-9.253,-2.866
138.691961,-3.923,-9.283,-3.15
138.701642,-4.236,-9.708,-3.225
138.711323,-4.393,-9.89,-3.098
138.721004,-4.433,-9.537,-2.837
138.730685,-4.511,-8.81,-2.669
138.740356,-4.59,-8.088,-2.701
138.750027,-4.629,-7.772,-2.685
138.759698,-4.511,-8.081,-2.739
138.769369,-4.354,-8.185,-2.598
138.77904,-4.04,-8.038,-2.533
138.788711,-3.727,-8.006,-2.487
138.798382,-3.57,-7.824,-2.614
138.808053,-3.373,-7.735,-2.439
138.817724,-3.177,-7.715,-2.555
138.827395,-3.138,-7.54,-2.644
138.837066,-3.099,-7.531,-2.244
138.846737,-3.02,-7.74,-2.639
138.856408,-2.864,-7.869,-2.583
138.866079,-2.864,-7.435,-2.108
138.875768,-2.785,-7.208,-2.267
138.885457,-2.667,-7.485,-2.276
138.895146,-2.589,-7.59,-2.135
138.904835,-2.628,-7.713,-2.117
138.914524,-2.55,-8.044,-2.494
138.924213,-2.354,-8.376,-2.871
138.933902,-2.197,-8.665,-3.041
138.943591,-2.118,-8.994,-2.98
138.95328,-2.118,-9.119,-2.723
138.962969,-2.118,-8.676,-2.526
138.972658,-1.961,-8.226,-2.367
138.982347,-1.844,-7.963,-2.28
138.992036,-1.844,-8.008,-2.248
139.001725,-2.04,-8.397,-2.078
139.011404,-2.275,-8.785,-1.908
139.021083,-2.432,-9.224,-1.905
139.030762,-2.471,-9.751,-2.078
139.040441,-2.393,-10.235,-2.044
139.05012,-2.157,-10.673,-2.041
139.059799,-1.608,-11.414,-2.132
139.069478,-0.941,-12.346,-2.496
139.079157,-0.275,-13.65,-3.004
139.088836,0.118,-15.271,-3.529
139.098515,0.588,-15.916,-3.484
139.108194,0.902,-14.973,-2.959
139.117873,1.294,-13.262,-2.498
139.127552,1.569,-11.346,-1.841
139.137231,1.883,-9.88,-1.344
139.146926,1.961,-9.246,-0.874
139.156621,1.961,-9.603,-0.658
139.166316,1.922,-10.596,-0.673
139.176011,1.726,-11.541,-0.96
139.185706,1.883,-12.216,-1.198
139.195401,1.961,-12.291,-1.45
139.205096,1.883,-11.787,-1.6
139.214791,1.844,-10.892,-1.482
139.224486,1.961,-9.803,-1.33
139.234181,1.961,-8.792,-1.192
139.243876,2.001,-7.615,-0.865
139.253571,2.197,-7.488,-1.36
139.263266,2.04,-8.208,-1.567
139.272954,1.726,-8.428,-1.446
139.282642,1.608,-8.435,-1.408
139.29233,1.491,-8.099,-1.508
139.302018,1.255,-7.881,-1.39
139.311706,1.138,-8.001,-1.61
139.321394,1.059,-8.078,-1.624
139.331082,0.981,-8.265,-1.696
139.34077,0.863,-8.29,-1.78
139.350458,0.667,-8.367,-1.794
139.360146,0.471,-8.574,-1.751
139.369834,0.275,-8.633,-1.642
139.379522,0.157,-8.671,-1.649
139.38921,0.078,-8.749,-1.662
139.398898,-0.039,-9.019,-1.71
139.408612,-0.157,-9.437,-1.823
139.418326,-0.275,-9.901,-1.905
139.42804,-0.51,-10.212,-1.721
139.437754,-0.706,-10.085,-1.539
139.447468,-0.824,-9.758,-1.362
139.457182,-0.863,-9.68,-1.348
139.466896,-1.138,-9.637,-1.142
139.47661,-1.373,-10.048,-1.294
139.486324,-1.491,-10.198,-1.121
139.496038,-1.608,-9.928,-1.073
139.505752,-1.491,-9.471,-0.953
139.515466,-1.451,-9.264,-0.996
139.52518,-1.491,-9.276,-1.158
139.534904,-1.451,-9.569,-0.851
139.544628,-1.412,-9.464,-0.992
139.554352,-1.294,-9.664,-0.987
139.564076,-1.098,-10.048,-1.294
139.5738,-1.02,-10.155,-1.591
139.583524,-0.902,-10.394,-1.594
139.593248,-0.824,-10.573,-1.705
139.602972,-0.745,-11.083,-2.432
139.612696,-0.863,-12.335,-3.011
139.62242,-1.059,-12.603,-2.621
139.632144,-0.863,-11.764,-2.632
139.641868,-0.588,-10.728,-2.409
139.651592,-0.431,-10.31,-2.973
139.661316,-0.549,-11.049,-3.302
139.67103,-0.902,-11.919,-3.336
139.680744,-1.294,-12.471,-3.593
139.690458,-1.608,-12.36,-3.773
139.700172,-2.079,-12.223,-3.868
139.709886,-2.432,-11.955,-3.582
139.7196,-2.589,-11.689,-3.734
139.729314,-2.707,-11.026,-3.657
139.739028,-2.746,-10.362,-3.58
139.748742,-2.667,-10.019,-3.718
139.758456,-2.589,-9.865,-3.691
139.76817,-2.432,-9.562,-3.598
139.777884,-2.314,-9.169,-3.569
139.787598,-2.157,-8.815,-3.546
139.797312,-2.04,-8.699,-3.525
139.807007,-2.079,-8.713,-3.448
139.816702,-1.961,-8.644,-3.157
139.826397,-1.922,-8.683,-3.164
139.836092,-1.883,-8.676,-3.203
139.845787,-1.844,-8.444,-3.162
139.855482,-1.765,-8.117,-2.985
139.865177,-1.687,-7.795,-3.007
139.874872,-1.569,-7.763,-2.962
139.884567,-1.412,-7.879,-2.982
139.894262,-1.138,-7.688,-2.71
139.903957,-0.863,-7.533,-2.683
139.913652,-0.667,-7.474,-2.792
139.923347,-0.628,-7.385,-2.617
139.933042,-0.667,-7.372,-2.694
139.942758,-0.745,-7.495,-2.676
139.952474,-0.785,-7.726,-2.717
139.96219,-0.706,-8.247,-2.928
139.971906,-0.745,-8.324,-2.942
139.981622,-0.863,-8.472,-3.007
139.991338,-1.098,-8.433,-3.001
140.001054,-1.373,-8.31,-3.019
140.01077,-1.726,-8.374,-3.11
140.020486,-2.079,-8.644,-3.157
140.030202,-2.471,-8.524,-2.937
140.039918,-2.707,-8.831,-3.23
140.049634,-2.942,-9.128,-3.123
140.05935,-3.099,-9.156,-2.969
140.069066,-3.06,-9.367,-3.125
140.078782,-3.099,-9.476,-3.184
140.088498,-3.177,-9.683,-3.141
140.098214,-3.177,-9.787,-3
140.10793,-3.177,-9.896,-3.059
140.117646,-3.138,-9.999,-3.157
140.127362,-3.02,-10.126,-3.339
140.137078,-2.824,-10.165,-3.346
140.146794,-2.589,-10.003,-3.357
140.15651,-2.236,-10.072,-3.648
140.166226,-1.961,-10.321,-3.812
140.175942,-1.687,-10.656,-3.95
140.185658,-1.53,-11.358,-4.034
140.195374,-1.412,-12.323,-4.204
140.205083,-1.53,-12.869,-3.823
140.214792,-1.412,-12.748,-3.602
140.224501,-1.216,-12.676,-3.788
140.23421,-1.216,-12.194,-3.584
140.243919,-1.177,-11.585,-3.198
140.253628,-1.177,-10.689,-2.403
140.263337,-1.098,-9.451,-1.746
140.273046,-0.941,-8.474,-1.414
140.282755,-0.706,-7.976,-1.526
140.292464,-0.628,-8.606,-1.796
140.302173,-0.588,-9.635,-2.057
140.311882,-0.588,-10.344,-2.103
140.321591,-0.588,-10.446,-2.2
140.3313,-0.667,-9.919,-2.028
140.340993,-0.785,-9.301,-1.919
140.350686,-0.745,-8.942,-1.696
140.360379,-0.667,-8.837,-1.837
140.370072,-0.706,-8.881,-2.044
140.379765,-0.667,-9.085,-2.239
140.389458,-0.628,-9.276,-2.512
140.399151,-0.667,-9.269,-2.551
140.408844,-0.628,-9.069,-2.555
140.418537,-0.628,-8.606,-2.473
140.42823,-0.588,-8.476,-2.53
140.437923,-0.628,-8.553,-2.544
140.447616,-0.745,-8.515,-2.537
140.457309,-0.824,-8.533,-2.66
140.467002,-0.902,-8.422,-2.839
140.476685,-0.745,-8.447,-2.923
140.486368,-0.745,-8.524,-2.937
140.496051,-0.628,-8.544,-2.821
140.505734,-0.628,-8.535,-2.421
140.515417,-0.667,-8.274,-2.773
140.5251,-0.785,-7.976,-2.88
140.534783,-0.785,-8.015,-2.887
140.544466,-0.824,-8.26,-2.851
140.554149,-0.785,-8.647,-2.919
140.563832,-0.667,-9.008,-2.903
140.573515,-0.471,-9.201,-2.937
140.583198,-0.353,-9.183,-2.814
140.592881,-0.196,-9.028,-2.787
140.602564,-0.118,-8.919,-2.728
140.612254,-0.078,-8.881,-2.721
140.621944,-0.118,-8.881,-2.721
140.631634,-0.235,-8.972,-2.657
140.641324,-0.314,-9.101,-2.601
140.651014,-0.235,-9.147,-2.569
140.660704,-0.118,-9.115,-2.523
140.670394,-0.118,-9.115,-2.523
140.680084,-0.078,-9.326,-2.68
140.689774,-0.039,-9.64,-2.935
140.699464,-0.039,-10.006,-3.119
140.709154,-0.039,-10.09,-3.094
140.718844,0,-9.974,-3.073
140.728534,0,-9.869,-3.214
140.738181,-0.039,-9.992,-3.196
140.747828,-0.157,-10.133,-3.3
140.757475,-0.314,-10.358,-3.38
140.767122,-0.51,-10.576,-3.498
140.776769,-0.667,-10.917,-3.598
140.786416,-0.667,-11.48,-4.016
140.796063,-0.824,-12.353,-4.488
140.80571,-1.059,-12.735,-4.357
140.815357,-1.216,-12.333,-3.927
140.825004,-1.373,-11.687,-3.973
140.834651,-1.687,-11.355,-4.273
140.844298,-2.118,-11.651,-4.404
140.853945,-2.432,-11.86,-4.123
140.863592,-2.707,-11.412,-3.725
140.873239,-2.864,-10.306,-3.45
140.882871,-3.099,-9.178,-3.291
140.892503,-3.256,-8.726,-3.371
140.902135,-3.373,-9.149,-3.684
140.911767,-3.53,-9.785,-3.916
140.921399,-3.687,-10.262,-3.921
140.931031,-3.844,-10.147,-3.9
140.940663,-3.883,-9.606,-3.805
140.950295,-3.844,-9.013,-3.78
140.959927,-3.805,-8.704,-3.725
140.969559,-3.727,-8.479,-3.646
140.979191,-3.57,-8.401,-3.632
140.988823,-3.295,-8.356,-3.664
140.998455,-3.06,-8.17,-3.591
141.008067,-2.707,-7.92,-3.428
141.017679,-2.354,-7.649,-3.38
141.027291,-1.922,-7.283,-3.196
141.036903,-1.569,-7.122,-3.208
141.046515,-1.334,-7.07,-3.278
141.056127,-1.255,-7.174,-3.137
141.065739,-1.255,-7.251,-3.151
141.075351,-1.373,-7.265,-3.073
141.084963,-1.491,-7.388,-3.055
141.094575,-1.608,-7.401,-2.978
141.104187,-1.648,-7.422,-2.862
141.113799,-1.687,-7.39,-2.817
141.123411,-1.648,-7.422,-2.862
141.133023,-1.53,-7.531,-2.921
141.142617,-1.53,-7.749,-3.039
141.152211,-1.53,-7.994,-3.003
141.161805,-1.569,-8.104,-3.062
141.171399,-1.491,-8.251,-3.128
141.180993,-1.491,-8.374,-3.11
141.190587,-1.373,-8.522,-3.176
141.200181,-1.334,-8.497,-3.091
141.209775,-1.255,-8.497,-3.091
141.219369,-1.216,-8.574,-3.105
141.228963,-1.216,-8.806,-3.146
141.238557,-1.177,-9.224,-3.26
141.248151,-1.138,-9.681,-3.38
141.257745,-1.02,-10.274,-3.405
141.267339,-0.902,-10.758,-3.371
141.276905,-0.824,-11.124,-3.555
141.286471,-0.667,-11.419,-3.686
141.296037,-0.431,-11.63,-3.843
141.305603,-0.235,-11.81,-3.954
141.315169,-0.039,-11.81,-3.954
141.324735,0.275,-11.744,-4.102
141.334301,0.628,-11.889,-4.407
141.343867,1.02,-12.164,-4.654
141.353433,1.294,-12.101,-4.563
141.362999,1.687,-11.76,-4.464
141.372565,2.001,-11.565,-4.668
141.382131,2.118,-11.73,-4.857
141.391697,2.079,-12.046,-4.872
141.401263,2.001,-12.087,-4.641
141.41081,2.001,-11.51,-4.3
141.420357,2.118,-10.81,-3.977
141.429904,2.001,-9.958,-3.389
141.439451,1.961,-9.092,-2.878
141.448998,1.961,-8.385,-2.594
141.458545,1.922,-7.922,-2.512
141.468092,1.961,-8.094,-2.662
141.477639,1.883,-8.744,-2.816
141.487186,1.687,-9.19,-2.776
141.496733,1.569,-9.331,-2.88
141.50628,1.608,-9.31,-2.996
141.515827,1.569,-9.219,-3.06
141.525374,1.569,-9.174,-3.091
141.534921,1.569,-9.065,-3.032
141.544496,1.451,-8.858,-3.076
141.554071,1.412,-8.799,-3.185
141.563646,1.216,-8.694,-3.325
141.573221,1.02,-8.54,-3.298
141.582796,0.824,-8.333,-3.341
141.592371,0.628,-8.01,-3.364
141.601946,0.471,-7.785,-3.285
141.611521,0.392,-7.715,-3.232
141.621096,0.353,-7.645,-3.18
141.630671,0.353,-7.715,-3.232
141.640246,0.275,-7.799,-3.207
141.649821,0.196,-7.729,-3.155
141.659396,0.118,-7.574,-3.128
141.668979,0.078,-7.374,-3.133
141.678562,-0.039,-7.258,-3.112
141.688145,-0.039,-7.286,-2.958
141.697728,-0.078,-7.304,-3.08
141.707311,-0.039,-7.361,-3.21
141.716894,0,-7.554,-3.244
141.726477,0.157,-7.779,-3.323
141.73606,0.392,-7.92,-3.428
141.745643,0.588,-7.965,-3.396
141.755226,0.785,-7.888,-3.382
141.764809,0.902,-7.933,-3.351
141.774392,1.02,-7.933,-3.351
141.783975,1.059,-8.133,-3.346
141.793558,1.255,-8.417,-3.316
141.803151,1.412,-8.849,-3.353
141.812744,1.53,-9.369,-3.564
141.822337,1.412,-9.449,-3.339
141.83193,1.451,-9.428,-3.455
141.841523,1.294,-9.665,-3.696
141.851116,1.098,-10.069,-3.887
141.860709,0.902,-10.569,-4.214
141.870302,0.549,-11.078,-4.264
141.879895,0.078,-11.49,-4.416
141.889488,-0.667,-11.574,-4.391
141.899081,-1.177,-11.505,-4.1
141.908674,-1.373,-11.799,-4.47
141.918267,-1.53,-12.746,-5.195
141.92786,-1.765,-13.298,-4.775
141.937493,-1.804,-12.992,-4.482
141.947126,-1.765,-12.703,-4.311
141.956759,-2.079,-12.446,-4.186
141.966392,-2.393,-12.687,-3.95
141.976025,-2.589,-12.987,-3.604
141.985658,-2.589,-12.816,-3.216
141.995291,-2.589,-12.144,-2.739
142.004924,-2.471,-11.282,-2.428
142.014557,-2.354,-10.308,-1.857
142.02419,-2.354,-9.362,-1.571
142.033823,-2.314,-8.706,-1.455
142.043456,-2.275,-9.069,-1.878
142.053089,-2.157,-9.678,-2.264
142.062738,-1.961,-9.808,-2.207
142.072387,-1.726,-9.21,-1.982
142.082036,-1.412,-8.572,-1.989
142.091685,-1.177,-8.144,-2.153
142.101334,-1.138,-8.19,-2.121
142.110983,-1.02,-8.674,-2.087
142.120632,-1.177,-8.719,-2.055
142.130281,-1.412,-8.544,-2.144
142.13993,-1.53,-8.622,-2.158
142.149579,-1.334,-8.969,-2.219
142.159228,-1.02,-9.226,-2.344
142.168877,-0.628,-9.219,-2.382
142.178526,-0.431,-9.308,-2.557
142.188175,-0.51,-9.192,-2.537
142.197867,-0.431,-9.108,-2.562
142.207559,-0.275,-8.715,-2.532
142.217251,-0.235,-8.058,-2.417
142.226943,-0.157,-7.872,-2.344
142.236635,0.157,-8.076,-2.539
142.246327,0.235,-8.328,-2.464
142.256019,0.235,-8.181,-2.398
142.265711,0.353,-8.135,-2.43
142.275403,0.51,-8.206,-2.483
142.285095,0.588,-8.192,-2.56
142.294787,0.588,-7.96,-2.519
142.304479,0.667,-8.088,-2.701
142.314171,0.628,-8.524,-2.937
142.323877,0.549,-8.84,-2.953
142.333583,0.275,-8.651,-3.119
142.343289,-0.039,-8.574,-3.105
142.352995,-0.392,-8.838,-3.191
142.362701,-0.824,-9.013,-3.103
142.372407,-1.059,-8.703,-3.048
142.382113,-1.294,-8.683,-3.164
142.391819,-1.608,-8.767,-3.139
142.401525,-1.804,-9.024,-3.264
142.411231,-1.961,-9.499,-3.507
142.420937,-2.157,-10.09,-3.771
142.430643,-2.354,-10.849,-3.984
142.440349,-2.432,-11.165,-4
142.450055,-2.393,-10.992,-3.85
142.459798,-2.275,-10.201,-3.591
142.469541,-1.883,-10.178,-3.946
142.479284,-1.687,-10.701,-3.918
142.489027,-1.412,-10.84,-3.584
142.49877,-0.981,-11.117,-3.593
142.508513,-0.628,-11.926,-3.975
142.518256,-0.235,-13.337,-4.104
142.527999,0.039,-13.505,-3.377
142.537742,0.745,-12.982,-3.404
142.547485,1.177,-12.653,-3.466
142.557228,1.255,-12.496,-3
142.566971,1.177,-12.028,-2.041
142.576714,1.216,-10.976,-1.457
142.586463,1.216,-9.739,-0.562
142.596212,1.098,-9.576,-0.812
142.605961,0.941,-10.851,-1.037
142.61571,0.941,-12.262,-1.166
142.625459,1.059,-12.639,-0.834
142.635208,1.294,-12.237,-1.082
142.644957,1.177,-11.525,-1.275
142.654706,0.941,-10.894,-1.244
142.664455,0.706,-10.328,-1.741
142.674204,0.471,-10.164,-1.991
142.683953,0.157,-10.192,-2.514
142.693702,-0.039,-9.976,-2.834
142.703451,-0.235,-9.447,-2.9
142.7132,-0.549,-8.581,-3.066
142.722991,-0.745,-7.754,-3.239
142.732782,-0.981,-7.283,-3.196
142.742573,-1.138,-6.652,-3.164
142.752364,-1.216,-6.199,-3.244
142.762155,-1.334,-5.729,-3.201
142.771946,-1.451,-5.425,-3.346
142.781737,-1.687,-5.384,-3.578
142.791528,-1.804,-5.547,-3.328
142.801319,-1.922,-5.715,-3.278
142.81111,-1.922,-6.049,-3.417
142.820901,-1.765,-6.443,-3.446
142.830692,-1.53,-6.938,-3.573
142.840483,-1.294,-7.383,-3.532
142.850293,-1.216,-7.776,-3.562
142.860103,-1.216,-8.06,-3.532
142.869913,-1.334,-8.11,-3.701
142.879723,-1.216,-8.17,-3.591
142.889533,-1.059,-8.085,-3.616
142.899343,-0.824,-7.97,-3.596
142.909153,-0.549,-7.872,-3.698
142.918963,-0.314,-8.026,-3.726
142.928773,-0.196,-8.201,-3.637
142.938583,-0.078,-8.49,-3.807
142.948393,-0.118,-8.624,-3.95
142.958203,-0.078,-8.824,-3.946
142.968013,-0.039,-9.274,-4.105
142.977823,-0.039,-9.774,-4.432
142.987621,-0.039,-10.462,-4.593
142.997419,-0.078,-10.965,-4.682
143.007217,0,-11.144,-4.793
143.017015,0,-11.085,-4.902
143.026813,-0.157,-10.965,-4.682
143.036611,-0.275,-10.762,-4.925
143.046409,-0.471,-11.021,-4.811
143.056207,-0.745,-11.415,-4.841
143.066005,-0.941,-11.876,-5.161
143.075803,-1.255,-12.233,-4.945
143.085601,-1.451,-12.453,-4.825
143.095399,-1.648,-12.287,-4.636
143.105197,-1.844,-11.858,-4.361
143.114995,-2.04,-11.765,-4.663
143.124776,-2.236,-11.914,-4.491
143.134557,-2.314,-11.751,-4.064
143.144338,-2.275,-11.103,-3.671
143.154119,-2.314,-9.781,-3.039
143.1639,-2.314,-8.231,-2.567
143.173681,-2.236,-6.929,-2.496
143.183462,-2.157,-6.867,-2.844
143.193243,-2.157,-8.206,-3.16
143.203024,-2.118,-9.676,-3.18
143.212805,-2.079,-10.226,-2.998
143.222586,-2.001,-9.883,-3.137
143.232367,-1.883,-9.385,-3.248
143.242148,-1.883,-9.281,-3.389
143.251929,-2.001,-9.565,-3.359
143.261719,-2.118,-9.733,-3.309
143.271509,-2.236,-9.649,-3.334
143.281299,-2.275,-9.526,-3.353
143.291089,-2.314,-9.333,-3.319
143.300879,-2.314,-9.063,-3.271
143.310669,-2.236,-8.715,-3.21
143.320459,-2.079,-8.276,-3.212
143.330249,-1.804,-7.96,-3.196
143.340039,-1.491,-7.722,-3.194
143.349829,-1.216,-7.67,-3.264
143.359619,-1.098,-7.67,-3.264
143.369409,-0.981,-7.663,-3.303
143.379199,-0.941,-7.663,-3.303
143.388989,-0.902,-7.495,-3.353
143.398779,-0.863,-7.611,-3.373
143.408569,-0.824,-7.681,-3.426
143.418359,-0.785,-7.661,-3.542
143.428149,-0.667,-7.59,-3.489
143.437939,-0.588,-7.583,-3.528
143.447729,-0.51,-7.545,-3.521
143.457519,-0.549,-7.551,-3.482
143.467309,-0.628,-7.622,-3.535
143.477099,-0.745,-7.724,-3.632
143.486889,-0.902,-7.749,-3.716
143.496679,-1.02,-7.781,-3.762
143.506469,-1.098,-7.947,-3.95
143.516259,-1.138,-8.281,-4.089
143.526049,-1.216,-8.66,-4.196
143.535809,-1.255,-8.956,-4.328
143.545569,-1.294,-9.199,-4.53
143.555329,-1.294,-9.519,-4.746
143.565089,-1.373,-10.008,-4.911
143.574849,-1.491,-10.401,-4.941
143.584609,-1.569,-10.685,-4.911
143.594369,-1.569,-10.537,-4.845
143.604129,-1.451,-10.274,-4.759
143.613889,-1.569,-10.003,-4.711
143.623649,-1.491,-9.997,-4.75
143.633409,-1.373,-10.299,-4.843
143.643169,-1.177,-10.756,-4.964
143.652929,-0.863,-11.308,-5.22
143.662689,-0.353,-12.11,-5.641
143.672449,0.157,-12.608,-5.529
143.682209,0.628,-12.167,-5.093
143.691969,1.177,-11.662,-5.243
143.701729,1.608,-11.319,-5.382
143.711489,1.883,-11.242,-5.368
143.721249,2.157,-11.012,-5.088
143.731009,2.354,-10.158,-4.739
143.740769,2.511,-8.995,-4.334
143.750529,2.667,-7.831,-3.93
143.760289,2.746,-6.872,-3.721
143.770049,2.785,-6.645,-3.88
143.779809,2.707,-7.14,-4.007
143.789569,2.667,-8.12,-4.1
143.799298,2.628,-8.867,-4.153
143.809027,2.589,-8.958,-4.089
143.818756,2.589,-8.881,-4.075
143.828485,2.589,-8.681,-4.08
143.838214,2.667,-8.649,-4.034
143.847943,2.707,-8.642,-4.073
143.857672,2.667,-8.745,-4.171
143.867401,2.471,-8.924,-4.282
143.87713,2.197,-9.047,-4.264
143.886859,1.844,-8.951,-4.128
143.896588,1.569,-8.558,-4.098
143.906317,1.255,-8.204,-4.075
143.916046,0.902,-7.747,-3.955
143.925775,0.628,-7.367,-3.848
143.935491,0.431,-7.111,-3.723
143.945207,0.196,-6.886,-3.644
143.954923,0.118,-6.802,-3.669
143.964639,-0.039,-6.797,-3.469
143.974355,-0.157,-6.892,-3.605
143.984071,-0.314,-6.956,-3.696
