Time,AccelerometerX,AccelerometerY,AccelerometerZ
76.002324,0.078,-9.324,-2.919
76.011964,0.078,-9.401,-2.932
76.021604,0.078,-9.362,-2.925
76.031244,0.157,-9.324,-2.919
76.040884,0.196,-9.433,-2.978
76.050524,0.196,-9.535,-3.075
76.060164,0.275,-9.658,-3.057
76.069804,0.314,-9.703,-3.025
76.079444,0.353,-9.671,-2.98
76.089084,0.353,-9.717,-2.948
76.098724,0.314,-9.762,-2.916
76.108386,0.275,-9.833,-2.969
76.118048,0.118,-9.86,-2.814
76.12771,0.078,-9.783,-2.8
76.137372,0.039,-9.776,-2.839
76.147034,0,-9.674,-2.741
76.156696,-0.078,-9.571,-2.644
76.166358,-0.118,-9.456,-2.623
76.17602,-0.118,-9.417,-2.616
76.185682,-0.157,-9.456,-2.623
76.195344,-0.196,-9.558,-2.721
76.205006,-0.196,-9.635,-2.735
76.214668,-0.235,-9.726,-2.671
76.22433,-0.275,-9.765,-2.678
76.234007,-0.314,-9.726,-2.671
76.243684,-0.314,-9.694,-2.625
76.253361,-0.314,-9.719,-2.71
76.263038,-0.353,-9.712,-2.748
76.272715,-0.392,-9.815,-2.846
76.282392,-0.471,-9.776,-2.839
76.292069,-0.588,-9.769,-2.878
76.301746,-0.706,-9.724,-2.91
76.311423,-0.785,-9.608,-2.889
76.3211,-0.902,-9.556,-2.96
76.330777,-1.02,-9.562,-2.921
76.340454,-1.059,-9.499,-2.83
76.350131,-1.098,-9.408,-2.894
76.359808,-1.059,-9.285,-2.912
76.369503,-0.981,-9.369,-2.887
76.379198,-0.941,-9.447,-2.9
76.388893,-0.863,-9.608,-2.889
76.398588,-0.785,-9.851,-3.091
76.408283,-0.706,-10.012,-3.08
76.417978,-0.706,-10.006,-3.119
76.427673,-0.628,-10.031,-3.203
76.437368,-0.588,-10.044,-3.125
76.447063,-0.51,-10.012,-3.08
76.456758,-0.431,-9.921,-3.144
76.466453,-0.471,-9.896,-3.059
76.476148,-0.51,-9.833,-2.969
76.485843,-0.549,-9.756,-2.955
76.495538,-0.588,-9.724,-2.91
76.505234,-0.706,-9.935,-3.066
76.51493,-0.824,-10.205,-3.114
76.524626,-0.941,-10.387,-2.987
76.534322,-1.059,-10.362,-2.903
76.544018,-1.177,-10.299,-2.812
76.553714,-1.216,-10.196,-2.714
76.56341,-1.255,-10.144,-2.784
76.573106,-1.294,-10.292,-2.85
76.582802,-1.294,-10.742,-3.009
76.592498,-1.294,-11.442,-3.332
76.602194,-1.373,-11.912,-3.375
76.61189,-1.451,-11.957,-3.343
76.621586,-1.491,-11.592,-3.159
76.631282,-1.491,-10.942,-3.005
76.640978,-1.569,-10.433,-2.955
76.65067,-1.648,-10.021,-2.803
76.660362,-1.765,-9.546,-2.56
76.670054,-1.726,-9.122,-2.485
76.679746,-1.648,-8.837,-2.514
76.689438,-1.608,-8.683,-2.487
76.69913,-1.569,-8.599,-2.512
76.708822,-1.53,-8.631,-2.557
76.718514,-1.491,-8.61,-2.673
76.728206,-1.53,-8.656,-2.642
76.737898,-1.53,-8.688,-2.687
76.74759,-1.569,-8.603,-2.712
76.757282,-1.608,-8.597,-2.751
76.766974,-1.53,-8.66,-2.841
76.776702,-1.491,-8.878,-2.96
76.78643,-1.569,-9.058,-3.071
76.796158,-1.569,-9.167,-3.13
76.805886,-1.608,-9.103,-3.039
76.815614,-1.687,-8.847,-2.914
76.825342,-1.687,-8.622,-2.835
76.83507,-1.687,-8.583,-2.828
76.844798,-1.726,-8.474,-2.769
76.854526,-1.765,-8.526,-2.698
76.864254,-1.765,-8.513,-2.776
76.873982,-1.726,-8.551,-2.782
76.88371,-1.765,-8.597,-2.751
76.893438,-1.726,-8.533,-2.66
76.903164,-1.726,-8.36,-2.51
76.91289,-1.687,-8.174,-2.437
76.922616,-1.687,-8.033,-2.333
76.932342,-1.687,-8.019,-2.41
76.942068,-1.726,-8.103,-2.385
76.951794,-1.726,-8.188,-2.36
76.96152,-1.726,-8.265,-2.373
76.971246,-1.648,-8.388,-2.355
76.980972,-1.608,-8.472,-2.33
76.990698,-1.53,-8.472,-2.33
77.000424,-1.491,-8.51,-2.337
77.01015,-1.491,-8.556,-2.305
77.019876,-1.451,-8.665,-2.364
77.029602,-1.451,-8.787,-2.346
77.039358,-1.412,-8.787,-2.346
77.049114,-1.294,-8.858,-2.398
77.05887,-1.294,-9.083,-2.478
77.068626,-1.216,-9.456,-2.623
77.078382,-1.216,-9.951,-2.75
77.088138,-1.216,-10.33,-2.857
77.097894,-1.216,-10.664,-2.996
77.10765,-1.138,-10.999,-3.134
77.117406,-1.138,-11.378,-3.241
77.127162,-1.138,-11.61,-3.282
77.136918,-1.138,-11.771,-3.271
77.146674,-1.138,-11.855,-3.246
77.15643,-1.02,-11.932,-3.259
77.166214,-0.981,-12.087,-3.286
77.175998,-0.824,-12.28,-3.32
77.185782,-0.628,-12.635,-3.343
77.195566,-0.392,-13.214,-3.445
77.20535,-0.235,-14.134,-3.647
77.215134,-0.275,-14.509,-3.554
77.224918,-0.431,-13.809,-3.232
77.234702,-0.314,-13.121,-3.07
77.244486,-0.157,-13.341,-2.95
77.25427,-0.078,-14.162,-2.816
77.264054,-0.078,-14.598,-2.375
77.273838,-0.039,-13.862,-1.807
77.283622,0.196,-12.718,-1.287
77.293406,0.667,-11.523,-0.837
77.303183,1.138,-10.662,-0.526
77.31296,1.334,-10.582,-0.751
77.322737,1.216,-11.051,-1.032
77.332514,0.941,-11.423,-1.178
77.342291,0.706,-11.351,-1.364
77.352068,0.431,-10.955,-1.573
77.361845,0.078,-10.233,-1.605
77.371622,-0.157,-9.278,-1.596
77.381399,-0.353,-8.317,-1.626
77.391176,-0.471,-7.594,-1.658
77.400953,-0.549,-6.969,-1.587
77.41073,-0.628,-6.383,-1.524
77.420507,-0.667,-5.951,-1.488
77.430284,-0.706,-5.449,-1.399
77.440039,-0.628,-4.979,-1.356
77.449794,-0.628,-4.613,-1.172
77.459549,-0.471,-4.349,-1.086
77.469304,-0.353,-4.195,-1.058
77.479059,-0.431,-4.331,-0.963
77.488814,-0.745,-4.397,-0.815
77.498569,-1.02,-4.47,-0.629
77.508324,-1.294,-4.42,-0.461
77.518079,-1.294,-4.458,-0.467
77.527834,-1.138,-5.147,-0.629
77.537589,-0.981,-6.492,-0.906
77.547344,-0.941,-8.103,-1.031
77.557099,-0.785,-9.501,-1.237
77.566854,-0.588,-10.91,-1.605
77.576596,-0.588,-11.998,-1.757
77.586338,-0.628,-12.353,-1.78
77.59608,-0.785,-11.96,-1.75
77.605822,-0.667,-11.051,-1.71
77.615564,-0.51,-10.214,-1.482
77.625306,-0.588,-9.692,-1.51
77.635048,-0.941,-9.685,-1.548
77.64479,-1.412,-10.13,-1.507
77.654532,-1.765,-10.576,-1.466
77.664274,-2.001,-10.923,-1.528
77.674016,-2.118,-11.148,-1.607
77.683758,-2.197,-11.314,-1.796
77.6935,-2.197,-11.585,-1.844
77.703242,-2.079,-11.919,-1.982
77.712985,-1.804,-12.091,-2.132
77.722728,-1.608,-12.078,-2.209
77.732471,-1.451,-12.166,-2.384
77.742214,-1.373,-12.307,-2.489
77.751957,-1.412,-12.437,-2.432
77.7617,-1.451,-12.36,-2.418
77.771443,-1.53,-12.173,-2.346
77.781186,-1.53,-11.941,-2.305
77.790929,-1.569,-12.191,-2.468
77.800672,-1.726,-13.784,-3.148
77.810415,-2.001,-15.536,-3.377
77.820158,-2.275,-15.264,-2.891
77.829901,-2.275,-14.046,-2.795
77.839629,-2.118,-13.028,-2.695
77.849357,-2.157,-11.935,-2.343
77.859085,-2.314,-10.971,-1.935
77.868813,-2.236,-10.098,-1.462
77.878541,-2.236,-9.424,-1.223
77.888269,-2.118,-9.03,-1.194
77.897997,-2.001,-9.53,-1.521
77.907725,-2.079,-10.714,-1.81
77.917453,-2.314,-11.219,-1.66
77.927181,-2.589,-10.692,-1.487
77.936909,-2.628,-9.783,-1.446
77.946637,-2.667,-9.144,-1.453
77.956365,-2.667,-8.617,-1.28
77.966093,-2.707,-8.494,-1.299
77.975807,-2.628,-8.519,-1.383
77.985521,-2.628,-8.467,-1.453
77.995235,-2.511,-8.324,-1.587
78.004949,-2.393,-8.065,-1.701
78.014663,-2.236,-7.749,-1.685
78.024377,-2.04,-7.31,-1.687
78.034091,-1.883,-6.917,-1.658
78.043805,-1.726,-6.517,-1.667
78.053519,-1.53,-6.174,-1.806
78.063233,-1.412,-5.981,-1.772
78.072947,-1.294,-5.897,-1.797
78.082661,-1.177,-5.852,-1.828
78.092375,-1.098,-5.799,-1.899
78.102089,-1.098,-5.792,-1.937
78.111803,-1.138,-5.908,-1.958
78.1215,-1.059,-6.004,-2.094
78.131197,-1.098,-6.236,-2.135
78.140894,-1.138,-6.545,-2.19
78.150591,-1.255,-6.892,-2.251
78.160288,-1.373,-7.247,-2.274
78.169985,-1.491,-7.549,-2.367
78.179682,-1.569,-7.89,-2.467
78.189379,-1.608,-8.438,-2.523
78.199076,-1.687,-9.197,-2.737
78.208773,-1.844,-9.874,-2.737
78.21847,-1.922,-10.408,-2.871
78.228167,-1.883,-10.928,-3.082
78.237864,-1.765,-11.635,-3.366
78.247563,-1.726,-12.478,-3.554
78.257262,-1.726,-13.096,-3.663
78.266961,-1.687,-13.45,-3.686
78.27666,-1.648,-13.528,-3.7
78.286359,-1.569,-13.412,-3.679
78.296058,-1.373,-13.387,-3.595
78.305757,-1.138,-13.562,-3.507
78.315456,-0.824,-14.455,-3.863
78.325155,-0.549,-15.955,-4.168
78.334854,-0.549,-15.65,-3.636
78.344553,-0.275,-13.832,-2.877
78.354252,0.275,-12.205,-2.391
78.363951,0.863,-10.767,-1.739
78.373644,1.255,-9.535,-1.044
78.383337,1.608,-8.635,-0.726
78.39303,1.883,-8.967,-1.103
78.402723,2.001,-10.873,-2.037
78.412416,1.648,-12.839,-2.184
78.422109,1.491,-13.439,-2.17
78.431802,1.491,-13.075,-2.425
78.441495,1.491,-12.173,-2.346
78.451188,1.53,-11.285,-2.189
78.460881,1.53,-10.544,-2.098
78.470574,1.373,-10.003,-2.003
78.480267,1.138,-9.674,-2.064
78.48996,0.863,-9.421,-2.139
78.499653,0.549,-9.215,-2.182
78.509317,0.235,-8.853,-2.198
78.518981,-0.118,-8.39,-2.117
78.528645,-0.353,-7.842,-2.06
78.538309,-0.588,-7.185,-1.944
78.547973,-0.785,-6.574,-1.797
78.557637,-1.02,-6.033,-1.701
78.567301,-1.216,-5.57,-1.619
78.576965,-1.334,-5.254,-1.604
78.586629,-1.451,-5.099,-1.576
78.596293,-1.491,-5.124,-1.66
78.605957,-1.53,-5.188,-1.751
78.615621,-1.569,-5.438,-1.915
78.625285,-1.608,-5.817,-2.022
78.634949,-1.687,-6.158,-2.122
78.644622,-1.648,-6.499,-2.221
78.654295,-1.608,-6.756,-2.346
78.663968,-1.491,-7.051,-2.478
78.673641,-1.373,-7.36,-2.533
78.683314,-1.255,-7.715,-2.555
78.692987,-1.138,-7.954,-2.558
78.70266,-0.981,-8.101,-2.623
78.712333,-0.863,-8.358,-2.748
78.722006,-0.628,-8.763,-2.939
78.731679,-0.549,-9.444,-3.139
78.741352,-0.471,-9.946,-3.228
78.751025,-0.392,-10.442,-3.355
78.760698,-0.275,-10.994,-3.611
78.77035,-0.314,-11.708,-3.857
78.780002,-0.353,-12.396,-4.018
78.789654,-0.431,-12.898,-4.107
78.799306,-0.667,-12.951,-4.036
78.808958,-0.863,-12.687,-3.95
78.81861,-1.098,-12.43,-3.825
78.828262,-1.412,-12.648,-3.943
78.837914,-1.804,-14.171,-4.57
78.847566,-2.275,-16.193,-4.847
78.857218,-2.864,-16.257,-4.261
78.86687,-3.217,-15.055,-3.85
78.876522,-3.295,-13.569,-3.468
78.886174,-3.452,-12.378,-3.218
78.895826,-3.727,-11.646,-2.85
78.905478,-4.001,-11.083,-2.432
78.91512,-4.119,-10.403,-1.994
78.924762,-4.315,-9.803,-2.007
78.934404,-4.393,-10.046,-2.21
78.944046,-4.354,-10.878,-2.237
78.953688,-4.433,-11.139,-1.884
78.96333,-4.511,-10.619,-1.673
78.972972,-4.393,-9.749,-1.639
78.982614,-4.158,-9.137,-1.492
78.992256,-3.844,-8.667,-1.449
79.001898,-3.53,-8.467,-1.453
79.01154,-3.217,-8.306,-1.465
79.021182,-2.864,-8.162,-1.599
79.030824,-2.589,-8.181,-1.721
79.04045,-2.354,-8.072,-1.662
79.050076,-2.275,-7.731,-1.562
79.059702,-2.157,-7.119,-1.415
79.069328,-2.001,-6.365,-1.401
79.078954,-1.922,-5.74,-1.331
79.08858,-1.804,-5.463,-1.322
79.098206,-1.765,-5.502,-1.329
79.107832,-1.726,-5.617,-1.349
79.117458,-1.608,-5.836,-1.467
79.127084,-1.491,-6.099,-1.553
79.13671,-1.451,-6.279,-1.665
79.146336,-1.373,-6.504,-1.744
79.155962,-1.451,-6.729,-1.824
79.165588,-1.451,-6.922,-1.858
79.175211,-1.53,-7.147,-1.937
79.184834,-1.687,-7.476,-1.876
79.194457,-1.804,-7.901,-1.951
79.20408,-1.922,-8.088,-2.024
79.213703,-1.961,-8.506,-2.137
79.223326,-2.079,-9.308,-2.557
79.232949,-2.275,-10.285,-2.889
79.242572,-2.393,-11.471,-2.939
79.252195,-2.471,-12.369,-2.818
79.261818,-2.471,-12.666,-2.711
79.271441,-2.432,-12.519,-2.646
79.281064,-2.432,-12.26,-2.759
79.290687,-2.511,-12.032,-2.918
79.30031,-2.471,-11.812,-3.039
79.309949,-2.275,-11.553,-3.152
79.319588,-1.961,-11.326,-3.311
79.329227,-1.491,-11.271,-3.621
79.338866,-0.941,-11.976,-4.143
79.348505,-0.471,-13.626,-4.952
79.358144,-0.275,-15.019,-4.958
79.367783,-0.078,-14.616,-4.529
79.377422,0.471,-12.964,-3.959
79.387061,0.863,-11.137,-3.477
79.3967,1.177,-9.646,-2.896
79.406339,1.451,-8.767,-2.462
79.415978,1.726,-8.451,-2.446
79.425617,2.04,-9.035,-2.748
79.435263,2.197,-10.328,-3.096
79.444909,2.354,-11.501,-3.223
79.454555,2.55,-12.217,-3.23
79.464201,2.628,-12.16,-3.1
79.473847,2.746,-11.485,-2.862
79.483493,2.824,-10.687,-2.641
79.493139,2.746,-10.037,-2.487
79.502785,2.628,-9.728,-2.432
79.512431,2.432,-9.574,-2.405
79.522077,2.157,-9.356,-2.287
79.531723,2.001,-8.594,-2.312
79.541369,1.726,-8.058,-2.417
79.551015,1.334,-7.483,-1.837
79.560661,1.138,-6.865,-1.728
79.570322,0.667,-6.767,-1.831
79.579983,0.314,-6.388,-1.724
79.589644,0.039,-6.015,-1.578
79.599305,-0.196,-5.661,-1.556
79.608966,-0.431,-5.474,-1.483
79.618627,-0.588,-5.488,-1.406
79.628288,-0.745,-5.772,-1.376
79.637949,-0.902,-6.261,-1.542
79.64761,-1.02,-6.531,-1.59
79.657271,-0.981,-6.924,-1.619
79.666932,-1.02,-7.238,-1.874
79.676593,-1.059,-7.572,-2.012
79.686254,-0.981,-7.947,-1.919
79.695915,-0.941,-8.39,-2.117
79.705614,-0.824,-8.662,-1.926
79.715313,-0.706,-8.803,-2.03
79.725012,-0.549,-8.662,-1.926
79.734711,-0.353,-8.49,-1.776
79.74441,0,-8.265,-1.696
79.754109,0.314,-8.381,-1.717
79.763808,0.471,-8.946,-1.896
79.773507,0.314,-9.719,-2.032
79.783206,-0.039,-10.671,-2.28
79.792905,-0.471,-11.526,-2.63
79.802604,-0.941,-12.446,-2.832
79.812303,-1.53,-13.082,-3.064
79.822002,-2.04,-13.025,-2.934
79.831721,-2.471,-12.503,-2.961
79.84144,-2.942,-11.878,-2.891
79.851159,-3.373,-11.689,-3.057
79.860878,-3.805,-12.035,-3.357
79.870597,-4.315,-13.441,-3.963
79.880316,-4.943,-14.887,-3.9
79.890035,-5.452,-14.682,-3.027
79.899754,-5.688,-13.805,-3.032
79.909473,-5.766,-12.728,-3.041
79.919192,-5.806,-11.921,-3.098
79.928911,-5.845,-11.632,-2.927
79.93863,-5.845,-11.23,-2.498
79.948349,-5.884,-10.192,-1.837
79.958068,-5.806,-8.896,-1.728
79.967813,-5.57,-8.358,-2.071
79.977558,-5.492,-8.949,-2.335
79.987303,-5.531,-9.849,-1.976
79.997048,-5.531,-10.335,-1.703
80.006793,-5.413,-10.078,-1.578
80.016538,-5.217,-9.324,-1.564
80.026283,-4.825,-8.744,-1.462
80.036028,-4.511,-8.576,-1.512
80.045773,-4.236,-8.685,-1.571
80.055518,-3.883,-8.64,-1.603
80.065263,-3.727,-8.292,-1.542
80.075008,-3.57,-7.903,-1.712
80.084753,-3.413,-7.356,-1.656
80.094498,-3.099,-6.665,-1.733
80.104233,-2.864,-5.854,-1.59
80.113968,-2.589,-5.233,-1.719
80.123703,-2.471,-4.836,-1.49
80.133438,-2.197,-4.822,-1.567
80.143173,-1.922,-4.861,-1.574
80.152908,-1.608,-5.029,-1.524
80.162643,-1.373,-5.254,-1.604
80.172378,-1.294,-5.517,-1.69
80.182113,-1.373,-5.911,-1.719
80.191848,-1.648,-6.215,-1.574
80.201583,-1.883,-6.495,-1.344
80.211318,-2.079,-6.806,-1.16
80.221053,-2.354,-7.233,-0.997
80.230788,-2.589,-7.59,-0.781
80.240521,-2.785,-7.71,-0.324
80.250254,-2.903,-7.821,-0.144
80.259987,-3.02,-8.101,0.085
80.26972,-3.177,-8.662,0.106
80.279453,-3.177,-9.321,0.229
80.289186,-3.099,-10.041,0.022
80.298919,-2.824,-10.757,0.015
80.308652,-2.471,-11.382,-0.055
80.318385,-1.922,-12,-0.164
80.328118,-1.608,-12.561,-0.144
80.337851,-1.687,-12.8,-0.146
80.347584,-1.883,-12.732,0.145
80.357317,-2.236,-12.623,0.204
80.36705,-2.903,-12.45,0.354
80.376783,-3.923,-12.414,0.599
80.386516,-4.825,-12.916,0.511
80.396249,-5.374,-13.529,0.602
80.405982,-5.884,-14.193,0.525
80.415715,-6.237,-14.997,0.343
80.425448,-6.315,-14.693,0.875
80.435181,-6.119,-13.207,1.256
80.444914,-5.649,-11.557,1.388
80.454647,-4.825,-10.507,1.533
80.46438,-3.766,-10.228,1.303
80.474113,-2.746,-10.309,1.09
80.483846,-1.922,-10.478,1.14
80.493579,-1.294,-10.737,0.576
80.503312,-0.667,-11.03,0.206
80.513067,-0.078,-11.421,0.615
80.522822,0.235,-11.443,0.292
80.532577,0.431,-10.909,0.426
80.542332,0.314,-10.196,0.672
80.552087,0.275,-9.485,0.479
80.561842,0.157,-9.073,0.631
80.571597,0.078,-9.094,0.069
80.581352,-0.039,-9.442,0.008
80.591107,-0.275,-9.639,-0.226
80.600862,-0.471,-9.464,-0.315
80.610617,-0.431,-9.11,-0.292
80.620372,-0.549,-8.714,-0.501
80.630127,-0.667,-8.18,-0.367
80.639873,-0.824,-7.753,-0.531
80.649619,-0.981,-7.297,-0.41
80.659365,-1.059,-7.122,-0.499
80.669111,-1.216,-6.949,-0.349
80.678857,-1.412,-6.538,-0.197
80.688603,-1.373,-6.415,-0.215
80.698349,-1.334,-6.678,-0.301
80.708095,-1.216,-6.847,-0.251
80.717841,-1.255,-6.756,-0.315
80.727587,-1.098,-6.865,-0.374
80.737333,-1.059,-7.142,-0.383
80.747079,-1.059,-7.426,-0.353
80.756825,-1.098,-7.569,-0.219
80.766571,-1.02,-7.71,-0.324
80.776297,-1.059,-7.706,-0.124
80.786023,-0.863,-7.662,0.083
80.795749,-0.667,-7.96,0.19
80.805475,-0.588,-8.58,0.319
80.815201,-0.471,-9.394,0.415
80.824927,-0.431,-10.137,0.563
80.834653,-0.275,-10.725,0.738
80.844379,-0.118,-11.175,0.579
80.854105,-0.039,-11.666,0.652
80.863831,-0.157,-12.168,0.563
80.873557,-0.353,-12.561,0.533
80.883283,-0.431,-12.925,0.788
80.893009,-0.628,-12.784,0.893
80.902735,-0.902,-12.196,0.717
80.912459,-1.294,-11.78,0.392
80.922183,-1.569,-11.95,0.004
80.931907,-1.961,-12.498,-0.053
80.941631,-2.471,-13.734,-0.271
80.951355,-2.903,-15.488,-0.261
80.961079,-3.609,-14.297,0.666
80.970803,-3.766,-12.945,0.904
80.980527,-3.648,-12.377,0.845
80.990251,-3.727,-11.689,1.006
80.999975,-3.923,-11.4,1.176
81.009699,-3.844,-11.055,1.476
81.019423,-3.687,-10.203,2.065
81.029147,-3.295,-9.339,2.137
81.038854,-2.942,-9.434,2.001
81.048561,-2.785,-10.657,1.706
81.058268,-2.942,-11.891,1.926
81.067975,-3.334,-12.029,2.26
81.077682,-3.57,-11.184,2.21
81.087389,-3.727,-10.287,2.09
81.097096,-3.805,-9.641,2.044
81.106803,-3.962,-9.139,2.133
81.11651,-4.04,-8.862,2.142
81.126217,-3.962,-8.887,2.058
81.135924,-3.844,-9.039,1.792
81.145631,-3.609,-9.139,1.456
81.155338,-3.334,-9.021,1.237
81.165045,-3.06,-8.51,1.049
81.174753,-2.746,-7.955,1.067
81.184461,-2.432,-7.439,1.078
81.194169,-2.157,-6.987,0.999
81.203877,-1.883,-6.774,0.917
81.213585,-1.648,-6.658,0.937
81.223293,-1.491,-6.612,0.905
81.233001,-1.373,-6.528,0.88
81.242709,-1.255,-6.476,0.81
81.252417,-1.02,-6.501,0.726
81.262125,-0.824,-6.578,0.712
81.271833,-0.706,-6.649,0.66
81.281541,-0.588,-6.61,0.667
81.291249,-0.51,-6.649,0.66
81.300938,-0.471,-6.79,0.555
81.310627,-0.275,-6.894,0.696
81.320316,-0.157,-7.09,0.901
81.330005,-0.078,-7.342,0.976
81.339694,-0.039,-7.537,1.18
81.349383,-0.078,-7.726,1.346
81.359072,-0.078,-8.055,1.408
81.368761,-0.196,-8.635,1.306
81.37845,-0.353,-9.35,1.299
81.388139,-0.549,-9.932,1.435
81.397828,-0.667,-10.307,1.528
81.407517,-0.745,-10.475,1.578
81.417206,-0.745,-10.598,1.597
81.426895,-0.785,-10.83,1.556
81.436589,-0.667,-11.152,1.579
81.446283,-0.785,-11.296,1.713
81.455977,-0.706,-11.252,1.919
81.465671,-0.628,-11.227,2.003
81.475365,-0.51,-11.536,1.949
81.485059,-0.431,-12.366,1.683
81.494753,-0.392,-13.972,1.081
81.504447,-0.549,-15.211,1.102
81.514141,-0.628,-14.154,1.886
81.523835,-0.235,-12.804,2.363
81.533529,0.471,-11.852,2.61
81.543223,0.902,-11.225,3.119
81.552917,0.981,-10.625,3.783
81.562588,0.902,-10.236,4.289
81.572259,0.902,-9.743,4.655
81.58193,0.902,-9.602,4.76
81.591601,0.824,-10.163,4.78
81.601272,0.588,-10.95,4.721
81.610943,0.314,-11.15,4.726
81.620614,0.275,-10.704,4.685
81.630285,0.314,-10.039,4.523
81.639956,0.275,-9.316,4.491
81.649627,0.157,-8.839,4.496
81.659298,-0.118,-8.814,4.58
81.668969,-0.353,-9.08,4.732
81.67864,-0.667,-9.177,4.835
81.688311,-0.863,-8.971,4.791
81.697985,-0.941,-8.666,4.646
81.707659,-1.059,-8.239,4.482
81.717333,-1.059,-7.946,4.175
81.727007,-1.059,-7.725,4.055
81.736681,-0.981,-7.634,3.991
81.746355,-0.941,-7.719,4.016
81.756029,-0.902,-7.725,4.055
81.765703,-0.902,-7.578,4.121
81.775377,-1.059,-7.203,4.028
81.785051,-1.098,-6.932,4.075
81.794725,-1.373,-6.751,3.948
81.804399,-1.53,-6.687,4.039
81.814073,-1.412,-6.932,4.075
81.823744,-1.177,-7.603,4.037
81.833415,-1.255,-8.178,4.135
81.843086,-1.451,-8.264,4.398
81.852757,-1.412,-7.987,4.407
81.862428,-1.098,-7.65,4.307
81.872099,-0.667,-7.412,4.309
81.88177,-0.392,-7.173,4.312
81.891441,-0.275,-7.096,4.325
81.901112,-0.235,-7.444,4.264
81.910783,-0.275,-8.107,4.187
81.920454,-0.314,-8.7,4.162
81.930125,-0.118,-8.964,4.076
81.939796,-0.039,-8.918,4.044
81.949467,-0.039,-8.596,4.021
81.959156,-0.039,-8.169,3.857
81.968845,0,-7.982,3.93
81.978534,0.118,-8.028,3.962
81.988223,0.353,-8.08,4.032
81.997912,0.549,-8.068,4.194
82.007601,0.706,-7.987,4.407
82.01729,0.667,-7.968,4.53
82.026979,0.353,-8.028,4.639
82.036668,0.118,-8.137,4.58
82.046357,0.039,-8.316,4.469
82.056046,-0.039,-8.587,4.421
82.065735,-0.118,-8.896,4.366
82.075424,-0.157,-9.152,4.241
82.085131,-0.157,-9.377,4.162
82.094838,-0.196,-9.325,4.092
82.104545,0,-9.384,4.201
82.114252,-0.078,-9.334,4.369
82.123959,-0.314,-9.214,4.589
82.133666,-0.471,-9.293,4.814
82.143373,-0.353,-9.352,4.923
82.15308,-0.275,-9.264,5.098
82.162787,-0.275,-9.316,5.169
82.172494,-0.549,-9.677,5.185
82.182201,-0.902,-10.011,5.046
82.191908,-1.098,-10.254,4.844
82.201615,-0.863,-10.55,4.712
82.211322,-0.549,-10.918,4.767
82.221029,-0.471,-11.047,4.823
82.230736,-0.706,-11.131,4.848
82.240443,-0.785,-11.02,4.669
82.25015,-0.549,-10.818,4.426
82.259857,-0.157,-10.604,4.344
82.269564,0.078,-10.477,4.526
82.279271,-0.078,-10.504,4.68
82.288978,-0.588,-10.6,4.544
82.298685,-0.941,-10.854,4.18
82.308392,-0.706,-11.161,3.887
82.318099,-0.275,-11.127,3.694
82.327806,0,-10.907,3.574
82.337513,-0.078,-10.707,3.569
82.34722,-0.314,-10.543,3.319
82.356908,-0.471,-10.432,3.14
82.366596,-0.196,-10.141,3.071
82.376284,0.196,-9.902,3.074
82.385972,0.314,-9.716,3.146
82.39566,0.196,-9.775,3.255
82.405348,-0.039,-9.923,3.189
82.415036,0,-10.046,3.208
82.424724,0.392,-9.941,3.067
82.434412,0.902,-9.941,3.067
82.4441,0.863,-9.866,3.319
82.453788,0.196,-9.964,3.421
82.463476,-0.588,-10.111,3.355
82.473164,-0.981,-10.382,3.308
82.482852,-0.588,-10.748,3.124
82.492545,-0.275,-10.845,3.226
82.502238,-0.275,-10.789,3.355
82.511931,-0.667,-10.743,3.324
82.521624,-1.02,-10.627,3.344
82.531317,-0.981,-10.473,3.371
82.54101,-0.863,-10.343,3.315
82.550703,-0.902,-10.182,3.303
82.560396,-1.294,-10.014,3.253
82.570089,-1.804,-9.891,3.235
82.579782,-2.157,-9.961,3.183
82.589475,-2.275,-10.077,3.162
82.599168,-2.04,-10.271,3.128
82.608861,-1.608,-10.2,3.18
82.618541,-1.334,-9.916,3.151
82.628221,-1.098,-9.593,3.128
82.637901,-1.02,-9.4,3.162
82.647581,-0.941,-9.291,3.221
82.657261,-0.628,-9.316,3.137
82.666941,-0.392,-9.471,3.11
82.676621,-0.471,-9.691,3.23
82.686301,-0.667,-9.575,3.251
82.695981,-0.785,-9.498,3.264
82.705661,-0.471,-9.466,3.31
82.715341,-0.078,-9.666,3.314
82.725021,0.039,-9.796,3.371
82.734701,-0.314,-9.809,3.449
82.744381,-0.824,-9.725,3.423
82.754069,-1.059,-9.666,3.314
82.763757,-1.02,-9.737,3.262
82.773445,-0.628,-9.957,3.383
82.783133,-0.471,-10.248,3.451
82.792821,-0.667,-10.5,3.526
82.802509,-1.059,-10.689,3.692
82.812197,-1.334,-10.677,3.853
82.821885,-1.412,-10.523,3.88
82.831573,-1.255,-10.4,3.862
82.841261,-1.098,-10.418,3.739
82.850949,-0.941,-10.359,3.63
82.860637,-0.941,-10.145,3.549
82.870325,-0.902,-9.88,3.396
82.879997,-0.824,-9.614,3.244
82.889669,-0.549,-9.452,3.233
82.899341,-0.353,-9.484,3.187
82.909013,-0.392,-9.684,3.192
82.918685,-0.51,-9.814,3.249
82.928357,-0.628,-9.827,3.326
82.938029,-0.745,-9.68,3.392
82.947701,-0.785,-9.602,3.405
82.957373,-0.667,-9.648,3.437
82.967045,-0.667,-9.7,3.508
82.976717,-0.785,-9.855,3.48
82.986389,-0.863,-9.9,3.512
82.996061,-0.863,-9.861,3.519
83.005733,-0.745,-9.809,3.449
83.015413,-0.706,-9.732,3.462
83.025093,-0.706,-9.634,3.36
83.034773,-0.785,-9.466,3.31
83.044453,-0.667,-9.368,3.208
83.054133,-0.314,-9.4,3.162
83.063813,-0.039,-9.477,3.149
83.073493,0.039,-9.614,3.244
83.083173,-0.157,-9.614,3.244
83.092853,-0.353,-9.652,3.237
83.102533,-0.392,-9.652,3.237
83.112213,-0.353,-9.723,3.185
83.121893,-0.196,-9.864,3.08
83.131573,-0.314,-9.902,3.074
83.141242,-0.51,-9.78,3.055
83.150911,-0.667,-9.65,2.999
83.16058,-0.628,-9.559,2.935
83.170249,-0.51,-9.423,2.839
83.179918,-0.431,-9.325,2.737
83.189587,-0.667,-9.228,2.635
83.199256,-1.02,-9.084,2.501
83.208925,-1.02,-8.98,2.36
83.218594,-0.785,-9.019,2.353
83.228263,-0.549,-9.096,2.34
83.237932,-0.588,-9.18,2.365
83.247601,-0.745,-9.089,2.301
83.25727,-0.981,-9.166,2.287
83.266939,-1.02,-9.212,2.319
83.276623,-0.863,-9.264,2.39
83.286307,-0.706,-9.264,2.39
83.295991,-0.706,-9.232,2.435
83.305675,-0.785,-9.278,2.467
83.315359,-0.902,-9.355,2.453
83.325043,-0.824,-9.439,2.478
83.334727,-0.706,-9.614,2.567
83.344411,-0.51,-9.807,2.533
83.354095,-0.392,-9.884,2.519
83.363779,-0.392,-9.937,2.59
83.373463,-0.431,-9.891,2.558
83.383147,-0.353,-9.93,2.551
83.392831,-0.235,-10.052,2.569
83.402517,-0.196,-10.214,2.581
83.412203,-0.353,-10.266,2.651
83.421889,-0.549,-10.143,2.633
83.431575,-0.667,-9.937,2.59
83.441261,-0.745,-9.884,2.519
83.450947,-0.706,-9.955,2.467
83.460633,-0.667,-9.955,2.467
83.470319,-0.785,-9.871,2.442
83.480005,-0.941,-9.78,2.378
83.489691,-1.02,-9.728,2.308
83.499377,-0.902,-9.753,2.224
83.509063,-0.785,-9.791,2.217
83.518749,-0.667,-9.83,2.21
83.528435,-0.667,-9.875,2.242
83.538143,-0.667,-9.887,2.081
83.547851,-0.628,-9.946,2.19
83.557559,-0.431,-9.921,2.274
83.567267,-0.235,-9.85,2.326
83.576975,-0.196,-9.825,2.41
83.586683,-0.51,-9.987,2.421
83.596391,-0.902,-10.025,2.415
83.606099,-0.981,-10.18,2.387
83.615807,-0.824,-10.225,2.419
83.625515,-0.549,-10.257,2.374
83.635223,-0.353,-10.334,2.36
83.644931,-0.314,-10.43,2.224
83.654639,-0.392,-10.493,2.133
83.664342,-0.471,-10.487,2.094
83.674045,-0.471,-10.473,2.017
83.683748,-0.471,-10.473,2.017
83.693451,-0.549,-10.364,2.076
83.703154,-0.51,-10.234,2.019
83.712857,-0.588,-10.08,2.047
83.72256,-0.667,-9.957,2.028
83.732263,-0.745,-9.75,1.985
83.741966,-0.824,-9.691,1.876
83.751669,-0.863,-9.73,1.869
83.761372,-0.785,-9.775,1.901
83.771075,-0.588,-9.775,1.901
83.780778,-0.51,-9.828,1.971
83.790481,-0.549,-9.789,1.978
83.800198,-0.588,-9.782,1.94
83.809915,-0.549,-9.866,1.965
83.819632,-0.431,-9.968,1.867
83.829349,-0.314,-10.091,1.885
83.839066,-0.314,-10.137,1.917
83.848783,-0.431,-10.021,1.937
83.8585,-0.628,-9.943,1.951
83.868217,-0.824,-9.814,1.894
83.877934,-0.941,-9.684,1.837
83.887651,-1.059,-9.548,1.742
83.897368,-1.138,-9.45,1.64
83.907085,-1.177,-9.391,1.531
83.916802,-1.138,-9.378,1.453
83.926505,-1.177,-9.371,1.415
83.936208,-1.216,-9.364,1.376
83.945911,-1.216,-9.35,1.299
83.955614,-1.177,-9.396,1.331
83.965317,-1.098,-9.389,1.292
83.97502,-0.981,-9.344,1.26
83.984723,-0.941,-9.382,1.253
83.994426,-1.059,-9.505,1.272
84.004129,-1.059,-9.666,1.283
84.013832,-1.02,-9.853,1.21
84.023535,-0.863,-10.014,1.222
84.033238,-0.667,-10.13,1.201
84.042941,-0.549,-10.098,1.247
84.052644,-0.628,-10.175,1.233
84.062375,-0.706,-10.214,1.226
84.072106,-0.824,-10.214,1.226
84.081837,-1.02,-10.221,1.265
84.091568,-1.138,-10.228,1.303
84.101299,-1.294,-10.228,1.303
84.11103,-1.373,-10.318,1.367
84.120761,-1.412,-10.364,1.399
84.130492,-1.491,-10.403,1.392
84.140223,-1.569,-10.48,1.378
84.149954,-1.648,-10.434,1.347
84.159685,-1.687,-10.337,1.244
84.169416,-1.569,-10.169,1.194
84.179147,-1.412,-10.057,1.015
84.188866,-1.294,-10.03,0.86
84.198585,-1.098,-10.062,0.815
84.208304,-1.02,-10.016,0.783
84.218023,-0.941,-9.978,0.79
84.227742,-0.941,-9.816,0.779
84.237461,-0.981,-9.61,0.735
84.24718,-1.02,-9.494,0.756
84.256899,-1.098,-9.364,0.699
84.266618,-1.059,-9.312,0.628
84.276337,-1.02,-9.305,0.59
84.286056,-1.02,-9.407,0.492
84.295775,-1.098,-9.478,0.44
84.305494,-1.098,-9.516,0.433
84.315213,-1.138,-9.587,0.381
84.324951,-1.059,-9.671,0.406
84.334689,-0.902,-9.71,0.399
84.344427,-0.785,-9.78,0.347
84.354165,-0.745,-9.876,0.21
84.363903,-0.706,-10.005,0.267
84.373641,-0.745,-10.051,0.299
84.383379,-0.824,-10.025,0.383
84.393117,-0.863,-9.871,0.41
84.402855,-0.824,-9.819,0.34
84.412593,-0.824,-9.766,0.269
84.422331,-0.785,-9.676,0.206
84.432069,-0.785,-9.623,0.135
84.441807,-0.824,-9.585,0.142
84.45156,-0.941,-9.448,0.047
84.461313,-1.02,-9.403,0.015
84.471066,-0.981,-9.357,-0.017
84.480819,-0.941,-9.396,-0.024
84.490572,-0.863,-9.389,-0.062
84.500325,-0.824,-9.473,-0.037
84.510078,-0.745,-9.551,-0.051
84.519831,-0.745,-9.621,-0.103
84.529584,-0.745,-9.782,-0.092
84.539337,-0.706,-9.828,-0.06
84.54909,-0.667,-9.919,0.004
84.558843,-0.588,-9.964,0.035
84.568596,-0.628,-10.041,0.022
84.578349,-0.667,-10.041,0.022
84.588092,-0.706,-10.041,0.022
84.597835,-0.745,-10.048,0.06
84.607578,-0.824,-9.996,-0.01
84.617321,-0.941,-10.01,0.067
84.627064,-1.02,-9.946,0.158
84.636807,-1.059,-9.946,0.158
84.64655,-1.02,-9.901,0.126
84.656293,-0.941,-9.887,0.049
84.666036,-0.863,-9.88,0.01
84.675779,-0.824,-9.828,-0.06
84.685522,-0.824,-9.814,-0.137
84.695265,-0.824,-9.782,-0.092
84.705008,-0.785,-9.667,-0.071
84.714751,-0.745,-9.66,-0.11
84.724469,-0.745,-9.73,-0.162
84.734187,-0.667,-9.762,-0.208
84.743905,-0.667,-9.885,-0.189
84.753623,-0.706,-9.898,-0.112
84.763341,-0.785,-9.86,-0.105
84.773059,-0.785,-9.782,-0.092
84.782777,-0.863,-9.828,-0.06
84.792495,-0.941,-9.866,-0.067
84.802213,-0.902,-9.937,-0.119
84.811931,-0.863,-9.976,-0.126
84.821649,-0.902,-9.821,-0.099
84.831367,-0.863,-9.782,-0.092
84.841085,-0.863,-9.782,-0.092
84.850803,-0.863,-9.757,-0.008
84.860493,-0.902,-9.673,-0.033
84.870183,-0.902,-9.673,-0.033
84.879873,-0.863,-9.751,-0.046
84.889563,-0.824,-9.835,-0.021
84.899253,-0.824,-9.848,0.056
84.908943,-0.863,-9.816,0.101
84.918633,-0.941,-9.785,0.147
84.928323,-1.02,-9.83,0.179
84.938013,-1.02,-9.901,0.126
84.947703,-0.981,-10.055,0.099
84.957393,-0.902,-10.178,0.117
84.967083,-0.902,-10.262,0.142
84.976773,-0.941,-10.346,0.167
84.986463,-0.981,-10.262,0.142
84.996154,-0.981,-10.16,0.24
85.005845,-0.824,-10.166,0.279
85.015536,-0.824,-10.096,0.331
85.025227,-0.824,-10.089,0.292
85.034918,-0.785,-10.089,0.292
85.044609,-0.824,-10.012,0.306
85.0543,-0.863,-10.005,0.267
85.063991,-0.902,-9.921,0.242
85.073682,-0.902,-9.889,0.288
85.083373,-0.902,-9.966,0.274
85.093064,-0.902,-10.069,0.176
85.102755,-0.941,-10.441,0.031
85.112446,-1.098,-10.666,-0.049
85.122125,-1.216,-10.544,-0.067
85.131804,-1.177,-10.294,0.097
85.141483,-1.02,-9.921,0.242
85.151162,-0.824,-9.78,0.347
85.160841,-0.667,-9.748,0.392
85.17052,-0.628,-9.762,0.469
85.180199,-0.588,-9.762,0.469
85.189878,-0.588,-9.839,0.456
85.199557,-0.667,-9.891,0.526
85.209236,-0.745,-9.93,0.519
85.218915,-0.902,-9.969,0.513
85.228594,-0.941,-10.014,0.544
85.238273,-0.981,-10.014,0.544
85.247952,-1.02,-9.969,0.513
85.257627,-1.138,-9.975,0.551
85.267302,-1.177,-9.95,0.635
85.276977,-1.138,-10.028,0.622
85.286652,-1.098,-10.021,0.583
85.296327,-1.098,-10.06,0.576
85.306002,-1.059,-10.06,0.576
85.315677,-0.981,-10.066,0.615
85.325352,-0.941,-10.105,0.608
85.335027,-0.941,-10.137,0.563
85.344702,-0.941,-10.175,0.556
85.354377,-0.941,-10.066,0.615
85.364052,-0.981,-9.957,0.674
85.373727,-0.981,-9.912,0.642
85.383402,-0.981,-9.95,0.635
85.393095,-1.059,-10.01,0.744
85.402788,-1.059,-10.003,0.706
85.412481,-1.098,-10.048,0.738
85.422174,-1.138,-10.08,0.692
85.431867,-1.216,-10.073,0.654
85.44156,-1.294,-10.08,0.692
85.451253,-1.334,-10.119,0.685
85.460946,-1.373,-10.196,0.672
85.470639,-1.373,-10.273,0.658
85.480332,-1.334,-10.273,0.658
85.490025,-1.294,-10.235,0.665
85.499718,-1.255,-10.125,0.724
85.509411,-1.177,-9.964,0.713
85.519118,-1.098,-9.855,0.772
85.528825,-0.981,-9.816,0.779
85.538532,-0.785,-9.83,0.856
85.548239,-0.785,-9.875,0.888
85.557946,-0.745,-9.869,0.849
85.567653,-0.706,-9.9,0.804
85.57736,-0.745,-9.862,0.81
85.587067,-0.785,-9.785,0.824
85.596774,-0.785,-9.791,0.863
85.606481,-0.824,-9.83,0.856
85.616188,-0.863,-9.914,0.881
85.625895,-0.902,-9.998,0.906
85.635602,-0.981,-10.037,0.899
85.645309,-1.02,-10.005,0.944
85.655029,-1.02,-9.973,0.99
85.664749,-0.981,-10.012,0.983
85.674469,-0.981,-10.012,0.983
85.684189,-0.981,-10.005,0.944
85.693909,-0.981,-9.928,0.958
85.703629,-1.059,-9.889,0.965
85.713349,-1.059,-9.882,0.926
85.723069,-1.059,-9.889,0.965
85.732789,-1.02,-9.857,1.01
85.742509,-1.02,-9.78,1.024
85.752229,-0.981,-9.78,1.024
85.761949,-1.059,-9.741,1.031
85.771669,-1.02,-9.741,1.031
85.781374,-1.059,-9.741,1.031
85.791079,-0.981,-9.794,1.101
85.800784,-0.824,-9.8,1.14
85.810489,-0.745,-9.846,1.172
85.820194,-0.745,-9.846,1.172
85.829899,-0.745,-9.737,1.231
85.839604,-0.706,-9.698,1.238
85.849309,-0.706,-9.691,1.199
85.859014,-0.667,-9.691,1.199
85.868719,-0.667,-9.737,1.231
85.878424,-0.667,-9.782,1.263
85.888129,-0.628,-9.789,1.301
85.897834,-0.628,-9.834,1.333
85.907539,-0.667,-9.887,1.403
85.91725,-0.785,-9.88,1.365
85.926961,-0.902,-9.848,1.41
85.936672,-0.941,-9.855,1.449
85.946383,-1.02,-9.823,1.494
85.956094,-1.059,-9.837,1.572
85.965805,-1.059,-9.837,1.572
85.975516,-1.098,-9.837,1.572
85.985227,-1.02,-9.837,1.572
85.994938,-0.981,-9.875,1.565
86.004649,-0.941,-9.882,1.603
86.01436,-0.981,-9.889,1.642
86.024071,-1.02,-9.85,1.649
86.033782,-1.098,-9.896,1.681
86.043473,-1.177,-9.909,1.758
86.053164,-1.255,-9.839,1.81
86.062855,-1.373,-9.821,1.933
86.072546,-1.451,-9.744,1.946
86.082237,-1.491,-9.705,1.953
86.091928,-1.412,-9.718,2.031
86.101619,-1.294,-9.778,2.14
86.11131,-1.177,-9.966,2.306
86.121001,-1.138,-10.148,2.433
86.130692,-1.138,-10.284,2.528
86.140383,-1.177,-10.291,2.567
86.150074,-1.216,-10.291,2.567
86.159765,-1.255,-10.252,2.574
86.169456,-1.177,-10.214,2.581
86.17916,-1.098,-10.182,2.626
86.188864,-1.138,-10.15,2.671
86.198568,-1.02,-10.189,2.665
86.208272,-1.02,-10.266,2.651
86.217976,-0.981,-10.259,2.612
86.22768,-0.981,-10.168,2.549
86.237384,-0.981,-10.123,2.517
86.247088,-0.981,-10.052,2.569
86.256792,-0.981,-10.014,2.576
86.266496,-1.02,-10.014,2.576
86.2762,-1.059,-9.975,2.583
86.285904,-1.098,-9.93,2.551
86.295608,-1.138,-9.884,2.519
86.3053,-1.138,-9.8,2.494
86.314992,-1.216,-9.768,2.54
86.324684,-1.255,-9.755,2.462
86.334376,-1.373,-9.807,2.533
86.344068,-1.491,-9.814,2.571
86.35376,-1.687,-9.866,2.642
86.363452,-1.961,-9.918,2.712
86.373144,-2.314,-10.016,2.815
86.382836,-2.864,-10.166,2.987
86.392528,-3.53,-10.355,3.153
86.40222,-4.276,-10.561,3.196
86.411912,-4.746,-10.645,3.221
86.421604,-4.707,-10.639,3.183
86.431296,-4.315,-10.614,3.267
86.440995,-3.766,-10.614,3.267
86.450694,-3.256,-10.53,3.242
86.460393,-2.824,-10.425,3.101
86.470092,-2.393,-10.289,3.005
86.479791,-1.883,-10.107,2.878
86.48949,-1.294,-9.893,2.796
86.499189,-0.824,-9.718,2.708
86.508888,-0.471,-9.568,2.535
86.518587,-0.235,-9.471,2.433
86.528286,-0.157,-9.482,2.271
86.537985,-0.118,-9.559,2.258
86.547684,-0.157,-9.616,2.128
86.557383,-0.314,-9.628,1.967
86.567065,-0.353,-9.653,1.883
86.576747,-0.314,-9.671,1.76
86.586429,-0.353,-9.644,1.606
86.596111,-0.392,-9.689,1.637
86.605793,-0.471,-9.805,1.617
86.615475,-0.549,-9.844,1.61
86.625157,-0.667,-9.837,1.572
86.634839,-0.667,-9.791,1.54
86.644521,-0.628,-9.771,1.424
86.654203,-0.588,-9.764,1.385
86.663885,-0.588,-9.764,1.385
86.673567,-0.588,-9.803,1.378
86.683249,-0.588,-9.873,1.326
86.692931,-0.588,-9.996,1.344
86.702619,-0.588,-10.087,1.408
86.712307,-0.588,-10.094,1.447
86.721995,-0.588,-10.184,1.51
86.731683,-0.549,-10.153,1.556
86.741371,-0.549,-10.153,1.556
86.751059,-0.588,-10.069,1.531
86.760747,-0.628,-10.062,1.492
86.770435,-0.549,-9.939,1.474
86.780123,-0.549,-9.809,1.417
86.789811,-0.471,-9.809,1.417
86.799499,-0.431,-9.757,1.347
86.809187,-0.392,-9.673,1.322
86.818875,-0.431,-9.621,1.251
86.828548,-0.51,-9.614,1.212
86.838221,-0.471,-9.639,1.128
86.847894,-0.431,-9.723,1.153
86.857567,-0.275,-9.769,1.185
86.86724,-0.314,-9.755,1.108
86.876913,-0.314,-9.716,1.115
86.886586,-0.353,-9.748,1.069
86.896259,-0.392,-9.91,1.081
86.905932,-0.392,-10.046,1.176
86.915605,-0.314,-10.162,1.156
86.925278,-0.353,-10.253,1.219
86.934951,-0.392,-10.343,1.283
86.944624,-0.392,-10.473,1.34
86.954297,-0.353,-10.505,1.294
86.963978,-0.353,-10.518,1.372
86.973659,-0.314,-10.473,1.34
86.98334,-0.157,-10.582,1.281
86.993021,-0.078,-10.575,1.242
87.002702,-0.157,-10.484,1.179
87.012383,-0.235,-10.457,1.024
87.022064,-0.275,-10.503,1.056
87.031745,-0.235,-10.612,0.997
87.041426,-0.196,-10.65,0.99
87.051107,-0.196,-10.573,1.004
87.060788,-0.392,-10.45,0.985
87.070469,-0.588,-10.43,0.869
87.08015,-0.667,-10.525,0.733
87.089843,-0.628,-10.719,0.699
87.099536,-0.628,-10.814,0.563
87.109229,-0.667,-10.814,0.563
87.118922,-0.785,-10.691,0.545
87.128615,-0.863,-10.509,0.417
87.138308,-0.785,-10.373,0.322
87.148001,-0.51,-10.191,0.195
87.157694,-0.196,-10.087,0.054
87.167387,-0.157,-9.989,-0.049
87.17708,-0.353,-9.814,-0.137
87.186773,-0.588,-9.626,-0.303
87.196466,-0.745,-9.501,-0.56
87.206159,-0.785,-9.467,-0.753
87.215852,-0.785,-9.523,-0.883
87.225546,-0.745,-9.619,-1.019
87.23524,-0.824,-9.626,-0.98
87.244934,-0.981,-9.535,-1.044
87.254628,-1.059,-9.548,-0.967
87.264322,-1.098,-9.587,-0.973
87.274016,-1.059,-9.703,-0.994
87.28371,-1.059,-9.78,-1.008
87.293404,-1.02,-9.851,-1.06
87.303098,-1.02,-9.819,-1.014
87.312792,-1.02,-9.819,-1.014
87.322486,-1.02,-9.689,-1.071
87.33218,-0.941,-9.612,-1.058
87.341874,-0.706,-9.573,-1.051
87.351568,-0.471,-9.503,-0.999
87.361272,-0.314,-9.542,-1.005
87.370976,-0.118,-9.496,-1.037
87.38068,0,-9.335,-1.049
87.390384,0.078,-9.199,-1.144
87.400088,0.118,-9.294,-1.28
87.409792,0.157,-9.333,-1.287
87.419496,0.157,-9.274,-1.396
87.4292,0.157,-9.267,-1.435
87.438904,0.196,-9.305,-1.442
87.448608,0.235,-9.446,-1.546
87.458312,0.196,-9.562,-1.567
87.468016,0.157,-9.653,-1.503
87.47772,0.118,-9.551,-1.405
87.487433,0.078,-9.578,-1.251
87.497146,-0.078,-9.539,-1.244
87.506859,-0.196,-9.539,-1.244
87.516572,-0.431,-9.526,-1.321
87.526285,-0.431,-9.617,-1.258
87.535998,-0.392,-9.662,-1.226
87.545711,-0.392,-9.701,-1.233
87.555424,-0.471,-9.676,-1.148
87.565137,-0.471,-9.644,-1.103
87.57485,-0.549,-9.612,-1.058
87.584563,-0.51,-9.651,-1.064
87.594276,-0.471,-9.644,-1.103
87.603989,-0.392,-9.721,-1.117
87.613702,-0.353,-9.773,-1.046
87.623404,-0.314,-9.819,-1.014
87.633106,-0.314,-9.819,-1.014
87.642808,-0.353,-9.851,-1.06
87.65251,-0.392,-9.812,-1.053
87.662212,-0.471,-9.812,-1.053
87.671914,-0.51,-9.819,-1.014
87.681616,-0.431,-9.864,-0.983
87.691318,-0.353,-9.864,-0.983
87.70102,-0.275,-9.91,-0.951
87.710722,-0.275,-9.962,-0.88
87.720424,-0.314,-10.007,-0.848
87.730126,-0.314,-9.976,-0.803
87.739828,-0.275,-9.944,-0.758
87.74953,-0.275,-9.905,-0.751
87.759245,-0.275,-10.014,-0.81
87.76896,-0.275,-10.007,-0.848
87.778675,-0.275,-9.93,-0.835
87.78839,-0.235,-9.905,-0.751
87.798105,-0.314,-9.873,-0.705
87.80782,-0.431,-9.88,-0.667
87.817535,-0.51,-9.926,-0.635
87.82725,-0.549,-9.964,-0.642
87.836965,-0.549,-10.003,-0.648
87.84668,-0.549,-10.01,-0.61
87.856395,-0.51,-10.048,-0.617
87.86611,-0.471,-10.048,-0.617
87.875825,-0.471,-10.055,-0.578
87.885559,-0.471,-9.985,-0.526
87.895293,-0.431,-10.023,-0.533
87.905027,-0.431,-9.953,-0.48
87.914761,-0.431,-9.935,-0.358
87.924495,-0.471,-9.844,-0.421
87.934229,-0.431,-9.837,-0.46
87.943963,-0.431,-9.76,-0.446
87.953697,-0.392,-9.657,-0.349
87.963431,-0.392,-9.548,-0.29
87.973165,-0.431,-9.51,-0.283
87.982899,-0.549,-9.471,-0.276
87.992633,-0.588,-9.271,-0.28
88.002367,-0.471,-9.135,-0.376
88.012101,-0.314,-9.223,-0.551
88.021833,-0.235,-9.501,-0.56
88.031565,-0.275,-9.701,-0.555
88.041297,-0.392,-9.785,-0.53
88.051029,-0.51,-9.78,-0.33
88.060761,-0.471,-9.807,-0.176
88.070493,-0.51,-9.828,-0.06
88.080225,-0.51,-9.919,0.004
88.089957,-0.431,-10.028,-0.055
88.099689,-0.471,-10.144,-0.076
88.109421,-0.471,-10.235,-0.012
88.119153,-0.431,-10.255,0.104
88.128885,-0.392,-10.191,0.195
88.138617,-0.353,-10.121,0.247
88.148349,-0.353,-10.051,0.299
88.158053,-0.392,-9.994,0.429
88.167757,-0.353,-9.994,0.429
88.177461,-0.392,-9.955,0.435
88.187165,-0.431,-9.955,0.435
88.196869,-0.51,-9.994,0.429
88.206573,-0.588,-10.078,0.454
88.216277,-0.706,-10.091,0.531
88.225981,-0.706,-10.144,0.601
88.235685,-0.745,-10.157,0.679
88.245389,-0.824,-10.139,0.801
88.255093,-0.824,-10.223,0.826
88.264797,-0.824,-10.191,0.872
88.274501,-0.863,-10.205,0.949
88.284205,-0.785,-10.198,0.91
88.293894,-0.824,-10.43,0.869
88.303583,-0.745,-10.564,0.726
88.313272,-0.785,-10.662,0.829
88.322961,-0.824,-10.591,0.881
88.33265,-0.863,-10.419,1.031
88.342339,-1.02,-10.309,1.09
88.352028,-1.098,-10.169,1.194
88.361717,-1.138,-10.053,1.215
88.371406,-1.138,-10.13,1.201
88.381095,-1.255,-10.239,1.142
88.390784,-1.255,-10.464,1.063
88.400473,-1.294,-10.618,1.035
88.410162,-1.334,-10.612,0.997
88.419851,-1.491,-10.446,1.185
88.42955,-1.648,-10.2,1.149
88.439249,-1.765,-10.214,1.226
88.448948,-1.844,-10.228,1.303
88.458647,-1.804,-10.273,1.335
88.468346,-1.726,-10.164,1.394
88.478045,-1.491,-9.932,1.435
88.487744,-1.216,-9.848,1.41
88.497443,-1.098,-9.816,1.456
88.507142,-1.098,-9.791,1.54
88.516841,-1.098,-9.675,1.56
88.52654,-1.098,-9.623,1.49
88.536239,-1.02,-9.571,1.419
88.545938,-0.981,-9.603,1.374
88.555623,-1.059,-9.571,1.419
88.565308,-0.981,-9.448,1.401
88.574993,-0.941,-9.371,1.415
88.584678,-0.902,-9.514,1.549
88.594363,-0.981,-9.63,1.528
88.604048,-0.981,-9.707,1.515
88.613733,-1.02,-9.83,1.533
88.623418,-1.098,-9.914,1.558
88.633103,-1.255,-9.959,1.59
88.642788,-1.373,-9.959,1.59
88.652473,-1.491,-10.114,1.563
88.662158,-1.648,-10.057,1.692
88.671843,-1.648,-10.071,1.769
88.681528,-1.648,-10.032,1.776
88.691209,-1.569,-10.007,1.86
88.70089,-1.491,-10.018,1.699
88.710571,-1.412,-10.032,1.776
88.720252,-1.255,-9.8,1.817
88.729933,-1.177,-9.607,1.851
88.739614,-1.177,-9.453,1.878
88.749295,-1.216,-9.459,1.917
88.758976,-1.216,-9.582,1.935
88.768657,-1.294,-9.705,1.953
88.778338,-1.334,-9.789,1.978
88.788019,-1.373,-9.834,2.01
88.7977,-1.412,-9.841,2.049
88.807381,-1.491,-9.841,2.049
88.817062,-1.53,-9.875,2.242
88.826722,-1.451,-9.521,2.265
88.836382,-1.412,-9.95,1.99
88.846042,-1.373,-10.307,2.206
88.855702,-1.334,-10.275,2.251
88.865362,-1.216,-10.377,2.153
88.875022,-1.177,-10.634,2.028
88.884682,-1.216,-10.855,2.149
88.894342,-1.412,-10.527,2.326
88.904002,-1.53,-9.966,2.306
88.913662,-1.648,-9.405,2.285
88.923322,-1.765,-8.914,2.212
88.932982,-1.844,-8.88,2.019
88.942642,-2.001,-8.862,2.142
88.952302,-2.079,-8.725,2.046
88.961965,-2.001,-9,1.799
88.971628,-2.04,-9.387,1.731
88.981291,-2.001,-9.562,1.819
88.990954,-2.001,-9.537,1.903
89.000617,-1.961,-9.544,1.942
89.01028,-1.922,-9.589,1.974
89.019943,-1.804,-9.687,2.076
89.029606,-1.726,-9.662,2.16
89.039269,-1.608,-9.714,2.231
89.048932,-1.569,-9.728,2.308
89.058595,-1.491,-9.709,2.43
89.068258,-1.451,-9.6,2.49
89.077921,-1.373,-9.587,2.412
89.087596,-1.334,-9.755,2.462
89.097271,-1.334,-9.825,2.41
89.106946,-1.334,-9.871,2.442
89.116621,-1.334,-9.871,2.442
89.126296,-1.334,-9.73,2.546
89.135971,-1.412,-9.568,2.535
89.145646,-1.373,-9.4,2.485
89.155321,-1.373,-9.162,2.487
89.164996,-1.255,-8.891,2.535
89.174671,-1.059,-8.871,2.419
89.184346,-0.863,-9.116,2.455
89.194021,-0.745,-9.116,2.455
89.203696,-0.51,-8.994,2.437
89.213371,-0.314,-8.871,2.419
89.223059,-0.353,-8.846,2.503
89.232747,-0.588,-9.048,2.746
89.242435,-1.059,-9.437,2.917
89.252123,-1.491,-9.85,3.003
89.261811,-1.883,-10.18,3.065
89.271499,-2.118,-10.2,3.18
89.281187,-2.197,-9.905,3.312
89.290875,-2.236,-9.557,3.373
89.300563,-2.236,-9.487,3.426
89.310251,-2.118,-9.5,3.503
89.319939,-2.001,-9.493,3.464
89.329627,-1.922,-9.423,3.517
89.339315,-1.844,-9.352,3.569
89.349003,-1.804,-9.307,3.537
89.358713,-1.726,-9.268,3.544
89.368423,-1.687,-9.237,3.589
89.378133,-1.608,-9.243,3.628
89.387843,-1.569,-9.205,3.635
89.397553,-1.53,-9.289,3.66
89.407263,-1.451,-9.373,3.685
89.416973,-1.412,-9.38,3.723
89.426683,-1.451,-9.316,3.814
89.436393,-1.491,-9.316,3.814
89.446103,-1.608,-9.284,3.86
89.455813,-1.726,-9.214,3.912
89.465523,-1.765,-9.368,3.885
89.475233,-1.844,-9.53,3.896
89.48494,-1.922,-9.6,3.844
89.494647,-1.922,-9.575,3.928
89.504354,-1.883,-9.543,3.973
89.514061,-1.844,-9.421,3.955
89.523768,-1.765,-9.234,4.028
89.533475,-1.608,-8.977,4.153
89.543182,-1.373,-8.823,4.18
89.552889,-1.216,-8.893,4.128
89.562596,-1.177,-8.996,4.03
89.572303,-1.138,-9.098,3.932
89.58201,-1.098,-9.168,3.88
89.591717,-1.098,-9.162,3.842
89.601424,-1.138,-9.091,3.894
89.611131,-1.255,-8.962,3.837
89.620856,-1.255,-8.821,3.941
89.630581,-1.294,-8.737,3.916
89.640306,-1.334,-8.762,3.832
89.650031,-1.373,-8.923,3.844
89.659756,-1.412,-9.007,3.869
89.669481,-1.491,-9.007,3.869
89.679206,-1.53,-9.052,3.901
89.688931,-1.491,-9.059,3.939
89.698656,-1.491,-9.059,3.939
89.708381,-1.53,-9.157,4.041
89.718106,-1.491,-9.209,4.112
89.727831,-1.451,-9.293,4.137
89.737556,-1.412,-9.268,4.221
89.747273,-1.334,-9.314,4.253
89.75699,-1.294,-9.307,4.214
89.766707,-1.294,-9.3,4.176
89.776424,-1.216,-9.216,4.151
89.786141,-1.138,-9.132,4.126
89.795858,-1.098,-9.055,4.139
89.805575,-1.098,-8.932,4.121
89.815292,-1.098,-8.771,4.11
89.825009,-1.059,-8.725,4.078
89.834726,-1.098,-8.732,4.116
89.844443,-1.177,-8.732,4.116
89.85416,-1.216,-8.809,4.103
89.863877,-1.177,-8.925,4.082
89.873594,-1.177,-8.971,4.114
89.883322,-1.177,-8.925,4.082
89.89305,-1.177,-8.848,4.096
89.902778,-1.177,-8.732,4.116
89.912506,-1.098,-8.693,4.123
89.922234,-1.059,-8.662,4.169
89.931962,-0.981,-8.598,4.26
89.94169,-0.785,-8.566,4.305
89.951418,-0.628,-8.489,4.319
89.961146,-0.588,-8.38,4.378
89.970874,-0.588,-8.334,4.346
89.980602,-0.667,-8.271,4.437
89.99033,-0.745,-8.162,4.496
90.000058,-0.667,-8.116,4.464
90.009789,-0.667,-7.998,4.246
90.01952,-0.706,-7.791,4.203
90.029251,-0.667,-7.609,4.075
90.038982,-0.785,-7.537,3.889
90.048713,-0.941,-7.775,3.887
90.058444,-1.059,-8.266,3.96
90.068175,-1.216,-8.816,4.141
90.077906,-1.373,-9.257,4.382
90.087637,-1.491,-9.445,4.548
90.097368,-1.608,-9.466,4.664
90.107099,-1.53,-9.293,4.814
90.11683,-1.451,-9.03,4.9
90.126561,-1.294,-8.805,4.98
90.136292,-1.138,-8.566,4.982
90.146023,-1.138,-8.443,4.964
90.155744,-1.177,-8.366,4.978
90.165465,-1.216,-8.384,4.855
90.175186,-1.255,-8.384,4.855
90.184907,-1.216,-8.346,4.862
90.194628,-1.098,-8.352,4.9
90.204349,-0.981,-8.314,4.907
90.21407,-0.981,-8.321,4.946
90.223791,-0.981,-8.289,4.991
90.233512,-1.02,-8.302,5.068
90.243233,-1.098,-8.18,5.05
90.252954,-1.098,-8.148,5.096
90.262675,-1.098,-8.162,5.173
90.272396,-1.138,-8.137,5.257
90.282129,-1.098,-8.143,5.296
90.291862,-1.138,-8.209,5.443
90.301595,-1.059,-8.221,5.282
90.311328,-0.981,-8.168,5.212
90.321061,-0.902,-8.207,5.205
90.330794,-0.706,-8.246,5.198
90.340527,-0.628,-8.427,5.325
90.35026,-0.628,-8.673,5.362
90.359993,-0.706,-8.855,5.489
90.369726,-0.863,-9.075,5.609
90.379459,-0.981,-9.173,5.712
90.389192,-1.098,-9.302,5.768
90.398925,-1.138,-9.432,5.825
90.408642,-1.138,-9.509,5.812
90.418359,-1.216,-9.554,5.844
90.428076,-1.255,-9.432,5.825
90.437793,-1.334,-9.309,5.807
90.44751,-1.334,-9.116,5.841
90.457227,-1.373,-8.916,5.837
90.466944,-1.294,-8.825,5.773
90.476661,-1.216,-8.805,5.657
90.486378,-1.177,-8.798,5.618
90.496095,-1.138,-8.766,5.664
90.505812,-1.059,-8.714,5.593
90.515529,-1.02,-8.675,5.6
90.525246,-0.902,-8.559,5.621
90.534963,-0.824,-8.559,5.621
90.544658,-0.785,-8.559,5.621
90.554353,-0.824,-8.559,5.621
90.564048,-0.902,-8.598,5.614
90.573743,-0.981,-8.636,5.607
90.583438,-1.02,-8.643,5.646
90.593133,-0.981,-8.682,5.639
90.602828,-0.941,-8.714,5.593
90.612523,-0.863,-8.72,5.632
90.622218,-0.824,-8.643,5.646
90.631913,-0.941,-8.636,5.607
90.641608,-1.02,-8.636,5.607
90.651303,-1.02,-8.63,5.568
90.660998,-0.902,-8.668,5.562
90.670693,-0.902,-8.668,5.562
90.680387,-0.941,-8.616,5.491
90.690081,-1.059,-8.43,5.564
90.699775,-1.138,-8.314,5.584
90.709469,-1.138,-8.211,5.682
90.719163,-1.02,-8.173,5.689
90.728857,-0.863,-8.25,5.675
90.738551,-0.824,-8.443,5.641
90.748245,-0.941,-8.623,5.53
90.757939,-1.059,-8.816,5.496
90.767633,-1.02,-8.841,5.412
90.777327,-0.902,-8.743,5.309
90.787021,-0.745,-8.666,5.323
90.796715,-0.549,-8.646,5.207
90.806399,-0.431,-8.593,5.137
90.816083,-0.275,-8.548,5.105
90.825767,-0.157,-8.373,5.016
90.835451,-0.078,-8.271,5.114
90.845135,-0.039,-8.18,5.05
90.854819,-0.157,-8.257,5.037
90.864503,-0.275,-8.373,5.016
90.874187,-0.353,-8.425,5.087
90.883871,-0.471,-8.414,5.248
90.893555,-0.549,-8.389,5.332
90.903239,-0.588,-8.48,5.396
90.912923,-0.706,-8.505,5.312
90.922607,-0.824,-8.575,5.259
90.932291,-0.824,-8.684,5.2
90.941961,-0.824,-8.82,5.296
90.951631,-0.824,-8.814,5.257
90.961301,-0.863,-8.814,5.257
90.970971,-0.941,-8.736,5.271
90.980641,-0.981,-8.652,5.246
90.990311,-0.981,-8.691,5.239
90.999981,-0.941,-8.684,5.2
91.009651,-0.902,-8.691,5.239
91.019321,-0.902,-8.639,5.168
91.028991,-0.785,-8.568,5.221
91.038661,-0.745,-8.407,5.209
91.048331,-0.628,-8.239,5.159
91.058001,-0.549,-8.155,5.134
91.067671,-0.51,-8.102,5.064
91.077352,-0.353,-8.089,4.987
91.087033,-0.392,-8.012,5
91.096714,-0.392,-7.98,5.046
91.106395,-0.431,-7.927,4.975
91.116076,-0.471,-7.857,5.028
91.125757,-0.51,-7.948,5.091
91.135438,-0.588,-8.032,5.116
91.145119,-0.706,-8.175,5.25
91.1548,-0.785,-8.311,5.346
91.164481,-0.824,-8.525,5.428
91.174162,-0.902,-8.732,5.471
91.183843,-0.941,-8.861,5.528
91.193524,-0.981,-8.893,5.482
91.203209,-1.059,-8.791,5.58
91.212894,-1.059,-8.7,5.516
91.222579,-1.059,-8.668,5.562
91.232264,-1.059,-8.57,5.459
91.241949,-1.02,-8.539,5.505
91.251634,-0.902,-8.493,5.473
91.261319,-0.863,-8.532,5.466
91.271004,-0.785,-8.525,5.428
91.280689,-0.706,-8.473,5.357
91.290374,-0.628,-8.396,5.371
91.300059,-0.628,-8.343,5.3
91.309744,-0.588,-8.298,5.268
91.319429,-0.549,-8.259,5.275
91.329114,-0.549,-8.298,5.268
91.338796,-0.588,-8.305,5.307
91.348478,-0.588,-8.343,5.3
91.35816,-0.549,-8.421,5.287
91.367842,-0.471,-8.452,5.241
91.377524,-0.471,-8.491,5.234
91.387206,-0.51,-8.491,5.234
91.396888,-0.588,-8.491,5.234
91.40657,-0.628,-8.53,5.228
91.416252,-0.706,-8.582,5.298
91.425934,-0.745,-8.652,5.246
91.435616,-0.824,-8.691,5.239
91.445298,-0.863,-8.698,5.278
91.45498,-0.941,-8.866,5.328
91.464662,-0.981,-8.982,5.307
91.474322,-0.941,-9.066,5.332
91.483982,-0.941,-9.15,5.357
91.493642,-0.902,-9.041,5.416
91.503302,-0.981,-8.911,5.359
91.512962,-1.02,-8.75,5.348
91.522622,-0.941,-8.711,5.355
91.532282,-0.902,-8.789,5.341
91.541942,-0.863,-8.898,5.282
91.551602,-0.902,-8.936,5.275
91.561262,-0.981,-8.898,5.282
91.570922,-1.059,-8.891,5.244
91.580582,-1.02,-8.814,5.257
91.590242,-0.941,-8.768,5.225
91.599902,-0.863,-8.684,5.2
91.609583,-0.863,-8.677,5.162
91.619264,-0.863,-8.702,5.078
91.628945,-0.941,-8.734,5.032
91.638626,-0.941,-8.85,5.012
91.648307,-0.981,-9.005,4.984
91.657988,-0.981,-9.127,5.003
91.667669,-0.902,-9.25,5.021
91.67735,-0.902,-9.295,5.053
91.687031,-0.941,-9.295,5.053
91.696712,-1.02,-9.25,5.021
91.706393,-1.059,-9.205,4.989
91.716074,-0.981,-9.191,4.912
91.725755,-0.863,-9.223,4.866
91.735416,-0.824,-9.293,4.814
91.745077,-0.785,-9.318,4.73
91.754738,-0.824,-9.189,4.673
91.764399,-0.824,-9.13,4.564
91.77406,-0.785,-9.168,4.557
91.783721,-0.667,-9.432,4.471
91.793382,-0.471,-9.825,4.442
91.803043,-0.275,-9.895,4.389
91.812704,0.118,-9.532,4.135
91.822365,0.039,-8.862,4.173
91.832026,0,-8.346,4.185
91.841687,-0.118,-8.346,4.185
91.851348,-0.235,-8.539,4.15
91.861009,-0.353,-8.739,4.155
91.87067,-0.392,-8.764,4.071
91.880332,-0.314,-8.802,4.064
91.889994,-0.275,-8.859,3.935
91.899656,-0.275,-8.975,3.914
91.909318,-0.392,-9.214,3.912
91.91898,-0.431,-9.459,3.948
91.928642,-0.314,-9.53,3.896
91.938304,-0.157,-9.53,3.896
91.947966,0.118,-9.471,3.787
91.957628,0.275,-9.496,3.703
91.96729,0.392,-9.566,3.651
91.976952,0.353,-9.636,3.598
91.986614,0.353,-9.546,3.535
91.996276,0.353,-9.455,3.471
92.005928,0.471,-9.318,3.376
92.01558,0.51,-9.234,3.351
92.025232,0.588,-9.175,3.242
92.034884,0.588,-9.162,3.164
92.044536,0.549,-9.148,3.087
92.054188,0.51,-9.187,3.08
92.06384,0.431,-9.218,3.035
92.073492,0.431,-9.257,3.028
92.083144,0.51,-9.296,3.021
92.092796,0.51,-9.257,3.028
92.102448,0.51,-9.282,2.944
92.1121,0.549,-9.237,2.912
92.121752,0.549,-9.191,2.88
92.131404,0.628,-9.107,2.855
92.141063,0.785,-9.034,2.669
92.150722,0.981,-9.119,2.694
92.160381,1.138,-9.241,2.712
92.17004,1.177,-9.248,2.751
92.179699,1.138,-9.164,2.726
92.189358,1.02,-9.119,2.694
92.199017,0.902,-9.073,2.662
92.208676,0.824,-9.066,2.624
92.218335,0.785,-9.059,2.585
92.227994,0.785,-9.112,2.655
92.237653,0.785,-9.105,2.617
92.247312,0.745,-9.066,2.624
92.256971,0.628,-9.066,2.624
92.26663,0.549,-9.028,2.63
92.276321,0.549,-9.007,2.514
92.286012,0.431,-9.021,2.592
92.295703,0.392,-9.073,2.662
92.305394,0.353,-9.157,2.687
92.315085,0.235,-9.209,2.758
92.324776,0.157,-9.262,2.828
92.334467,0.118,-9.3,2.821
92.344158,0.039,-9.275,2.905
92.353849,0.078,-9.275,2.905
92.36354,0.157,-9.321,2.937
92.373231,0.235,-9.373,3.008
92.382922,0.275,-9.38,3.046
92.392613,0.275,-9.38,3.046
92.402314,0.235,-9.341,3.053
92.412015,0.157,-9.393,3.123
92.421716,0.039,-9.6,3.167
92.431417,0,-9.646,3.199
92.441118,0,-9.73,3.224
92.450819,-0.039,-9.859,3.28
92.46052,-0.118,-9.982,3.299
92.470221,-0.157,-10.066,3.324
92.479922,-0.196,-10.027,3.33
92.489623,-0.235,-9.996,3.376
92.499324,-0.196,-9.841,3.403
92.509025,-0.157,-9.609,3.444
92.518726,-0.157,-9.5,3.503
92.528427,-0.314,-9.391,3.562
92.538126,-0.588,-9.243,3.628
92.547825,-0.745,-8.984,3.514
92.557524,-0.981,-9.003,3.392
92.567223,-1.138,-9.196,3.358
92.576922,-1.177,-9.693,3.469
92.586621,-1.138,-10.114,3.594
92.59632,-0.902,-10.45,3.694
92.606019,-0.667,-10.695,3.73
92.615718,-0.51,-10.902,3.774
92.625417,-0.471,-11.025,3.792
92.635116,-0.431,-11.179,3.765
92.644815,-0.471,-11.05,3.708
92.654514,-0.51,-10.966,3.683
92.664213,-0.549,-10.823,3.549
92.673934,-0.628,-10.557,3.396
92.683655,-0.785,-10.323,3.199
92.693376,-0.745,-10.025,3.092
92.703097,-0.785,-9.766,2.978
92.712818,-0.824,-9.707,2.869
92.722539,-0.824,-9.771,2.778
92.73226,-0.785,-9.802,2.733
92.741981,-0.706,-9.814,2.571
92.751702,-0.706,-9.716,2.469
92.761423,-0.628,-9.471,2.433
92.771144,-0.628,-9.225,2.396
92.780865,-0.628,-9.103,2.378
92.790586,-0.628,-8.928,2.289
92.800322,-0.588,-8.973,2.321
92.810058,-0.667,-9.037,2.23
92.819794,-0.745,-9.023,2.153
92.82953,-0.902,-8.869,2.18
92.839266,-1.138,-8.714,2.208
92.849002,-1.451,-8.714,2.208
92.858738,-1.687,-8.669,2.176
92.868474,-1.844,-8.553,2.196
92.87821,-1.883,-8.487,2.049
92.887946,-1.844,-8.628,1.944
92.897682,-1.844,-8.712,1.969
92.907418,-1.804,-8.757,2.001
92.917154,-1.765,-8.687,2.053
92.92689,-1.804,-8.61,2.067
92.936634,-1.883,-8.694,2.092
92.946378,-1.883,-8.925,2.051
92.956122,-1.922,-9.087,2.062
92.965866,-1.804,-9.196,2.003
92.97561,-1.804,-9.248,2.074
92.985354,-1.804,-9.037,2.23
92.995098,-1.922,-8.819,2.349
93.004842,-2.118,-8.685,2.492
93.014586,-2.314,-8.789,2.633
93.02433,-2.511,-9.009,2.753
93.034074,-2.55,-9.3,2.821
93.043818,-2.589,-9.532,2.78
93.053562,-2.667,-9.855,2.803
93.063306,-2.707,-9.914,2.912
93.07303,-2.864,-9.955,3.144
93.082754,-3.099,-9.852,3.242
93.092478,-3.413,-9.621,3.283
93.102202,-3.57,-9.343,3.292
93.111926,-3.609,-9.009,3.43
93.12165,-3.452,-8.764,3.394
93.131374,-3.413,-8.5,3.48
93.141098,-3.334,-8.307,3.514
93.150822,-3.334,-8.353,3.546
93.160546,-3.413,-8.282,3.598
93.17027,-3.491,-8.173,3.657
93.179994,-3.452,-8.012,3.646
93.189718,-3.334,-8.05,3.639
93.199442,-3.256,-8.359,3.585
93.209186,-3.256,-8.721,3.601
93.21893,-3.256,-8.941,3.721
93.228674,-3.334,-8.993,3.792
93.238418,-3.57,-8.912,4.005
93.248162,-3.53,-8.871,3.773
93.257906,-3.491,-9.373,3.685
93.26765,-3.53,-9.593,3.805
93.277394,-3.413,-9.548,3.773
93.287138,-3.413,-9.373,3.685
93.296882,-3.491,-9.296,3.698
93.306626,-3.57,-9.348,3.769
93.31637,-3.727,-9.309,3.776
93.326114,-3.727,-9.109,3.771
93.335873,-3.687,-8.973,3.676
93.345632,-3.53,-8.966,3.637
93.355391,-3.413,-8.921,3.605
93.36515,-3.373,-8.889,3.651
93.374909,-3.334,-9.127,3.648
93.384668,-3.334,-9.257,3.705
93.394427,-3.334,-9.198,3.596
93.404186,-3.256,-8.978,3.476
93.413945,-3.177,-8.912,3.328
93.423704,-3.177,-9.039,3.146
93.433463,-3.217,-9.041,3.385
93.443222,-3.256,-9.091,3.217
93.452981,-3.295,-8.962,3.16
93.46274,-3.334,-8.673,3.33
93.472485,-3.295,-8.189,3.296
93.48223,-3.334,-8.06,3.239
93.491975,-3.491,-7.95,3.298
93.50172,-3.452,-7.839,3.119
93.511465,-3.295,-8.23,2.851
93.52121,-3.177,-8.462,2.81
93.530955,-3.02,-8.166,2.942
93.5407,-3.06,-7.851,2.957
93.550445,-3.099,-7.735,2.978
93.56019,-3.177,-8.05,2.962
93.569935,-3.217,-8.478,3.126
93.57968,-3.06,-8.421,3.255
93.589425,-2.942,-8.132,3.426
93.59917,-2.981,-8.241,3.366
93.60889,-3.06,-9.009,3.43
93.61861,-3.413,-9.559,3.612
93.62833,-3.452,-9.696,3.708
93.63805,-3.177,-9.836,3.603
93.64777,-3.02,-10.109,3.794
93.65749,-2.942,-10.291,3.921
93.66721,-3.02,-10.336,3.953
93.67693,-3.099,-10.22,3.973
93.68665,-3.02,-9.943,3.983
93.69637,-2.746,-9.666,3.992
93.70609,-2.628,-9.602,4.082
93.71581,-2.628,-9.518,4.057
93.72553,-2.746,-9.286,4.098
93.73525,-3.06,-8.957,4.037
93.74498,-3.177,-9.071,3.778
93.75471,-2.942,-9.566,3.651
93.76444,-2.628,-9.991,3.576
93.77417,-2.511,-10.043,3.646
93.7839,-2.55,-10.12,3.633
93.79363,-2.667,-10.095,3.717
93.80336,-2.824,-10.032,3.808
93.81309,-2.903,-9.852,3.919
93.82282,-2.746,-10,3.853
93.83255,-2.667,-10.343,3.992
93.84228,-2.746,-10.795,4.071
93.85201,-3.06,-11.234,4.074
93.86174,-3.334,-11.532,4.18
93.871452,-3.295,-11.791,4.294
93.881164,-3.02,-11.931,4.19
93.890876,-2.824,-12.045,3.931
93.900588,-2.785,-11.959,3.667
93.9103,-2.824,-12.213,3.303
93.920012,-2.824,-12.229,3.619
93.929724,-3.099,-11.682,3.676
93.939436,-3.334,-10.943,3.328
93.949148,-3.295,-9.732,3.462
93.95886,-3.138,-8.85,2.98
93.968572,-3.099,-8.287,2.721
93.978284,-3.02,-7.667,2.592
93.987996,-3.02,-7.592,2.167
93.997708,-3.02,-7.628,1.921
94.007423,-2.903,-7.637,1.521
94.017138,-2.746,-7.621,1.205
94.026853,-2.667,-7.544,1.219
94.036568,-2.589,-7.524,1.103
94.046283,-2.471,-7.637,0.844
94.055998,-2.197,-7.999,0.86
94.065713,-2.079,-8.503,1.01
94.075428,-2.079,-8.787,1.04
94.085143,-2.118,-9.141,1.017
94.094858,-2.157,-9.464,1.04
94.104573,-2.118,-9.921,0.919
94.114288,-2.001,-10.364,0.722
94.124003,-1.844,-10.673,0.667
94.133695,-1.765,-10.821,0.601
94.143387,-1.726,-10.687,0.745
94.153079,-1.804,-10.275,0.897
94.162771,-1.687,-9.61,0.735
94.172463,-1.334,-9.144,0.578
94.182155,-0.667,-9.117,0.424
94.191847,0.118,-9.289,0.274
94.201539,0.353,-9.342,0.344
94.211231,0,-9.117,0.424
94.220923,-0.588,-8.826,0.356
94.230615,-1.177,-8.612,0.274
94.240307,-1.53,-8.637,0.19
94.249999,-1.687,-8.733,0.053
94.259691,-2.079,-8.789,-0.076
94.269386,-2.707,-8.794,-0.276
94.279081,-3.334,-8.762,-0.231
94.288776,-3.766,-9.046,-0.201
94.298471,-4.001,-9.312,-0.049
94.308166,-4.001,-9.494,0.079
94.317861,-3.923,-9.444,0.247
94.327556,-3.805,-9.321,0.229
94.337251,-3.609,-9.282,0.235
94.346946,-3.373,-9.339,0.106
94.356641,-3.217,-9.371,0.06
94.366336,-3.138,-9.203,0.01
94.376031,-2.981,-9.105,-0.092
94.385726,-2.942,-8.976,-0.149
94.395399,-2.942,-8.949,-0.303
94.405072,-3.02,-9.033,-0.278
94.414745,-3.099,-9.033,-0.278
94.424418,-3.256,-8.692,-0.178
94.434091,-3.256,-8.517,-0.267
94.443764,-3.295,-8.801,-0.237
94.453437,-3.413,-9.117,-0.253
94.46311,-3.57,-9.071,-0.285
94.472783,-3.609,-8.814,-0.16
94.482456,-3.766,-8.86,-0.128
94.492129,-4.04,-9.098,-0.131
94.501802,-4.315,-9.21,0.049
94.511475,-4.511,-9.262,0.119
94.521148,-4.472,-9.242,0.004
94.530807,-4.354,-9.242,0.004
94.540466,-4.158,-9.253,-0.158
94.550125,-3.962,-9.337,-0.133
94.559784,-3.648,-9.53,-0.167
94.569443,-3.177,-9.639,-0.226
94.579102,-2.707,-9.71,-0.278
94.588761,-2.393,-9.801,-0.215
94.59842,-2.354,-9.976,-0.126
94.608079,-2.432,-10.091,-0.146
94.617738,-2.471,-10.26,-0.096
94.627397,-2.471,-10.35,-0.033
94.637056,-2.511,-10.389,-0.039
94.646715,-2.589,-10.294,0.097
94.656374,-2.55,-9.882,0.249
94.666038,-2.432,-9.753,0.192
94.675702,-2.432,-10.06,-0.101
94.685366,-2.746,-10.228,-0.051
94.69503,-2.785,-9.905,-0.074
94.704694,-2.785,-9.428,-0.069
94.714358,-2.785,-9.362,-0.217
94.724022,-2.707,-9.433,-0.269
94.733686,-2.55,-9.426,-0.308
94.74335,-2.432,-9.485,-0.199
94.753014,-2.275,-9.305,-0.087
94.762678,-2.197,-9.235,-0.035
94.772342,-2.197,-9.519,-0.005
94.782006,-2.236,-9.926,0.042
94.791652,-2.314,-10.094,0.092
94.801298,-2.314,-10.094,0.092
94.810944,-2.354,-10.037,0.222
94.82059,-2.197,-10.023,0.145
94.830236,-2.04,-10.037,0.222
94.839882,-1.844,-10.019,0.345
94.849528,-1.726,-9.955,0.435
94.859174,-1.765,-9.86,0.572
94.86882,-1.883,-9.919,0.681
94.878466,-1.961,-10.041,0.699
94.888112,-1.804,-10.298,0.574
94.897758,-1.648,-10.639,0.474
94.907404,-1.648,-10.832,0.44
94.91705,-1.687,-10.787,0.408
94.926717,-1.765,-10.987,0.413
94.936384,-1.883,-11.355,0.467
94.946051,-1.883,-11.684,0.529
94.955718,-1.922,-11.8,0.508
94.965385,-2.04,-11.789,0.67
94.975052,-2.236,-11.682,0.967
94.984719,-2.393,-11.193,1.133
94.994386,-2.471,-10.787,1.085
95.004053,-2.55,-10.689,0.983
95.01372,-2.667,-10.734,1.015
95.023387,-2.746,-10.264,1.058
95.033054,-2.511,-10.062,0.815
95.042721,-2.354,-10.119,0.685
95.052401,-2.157,-10.189,0.633
95.062081,-1.804,-10.38,0.36
95.071761,-1.608,-10.412,0.315
95.081441,-1.569,-10.162,0.479
95.091121,-1.648,-9.821,0.579
95.100801,-1.608,-9.814,0.54
95.110481,-1.53,-9.994,0.429
95.120161,-1.491,-10.071,0.415
95.129841,-1.255,-10.012,0.306
95.139521,-1.059,-10.132,0.085
95.149201,-1.059,-10.325,0.051
95.158881,-1.059,-10.296,0.335
95.168561,-1.255,-10.257,0.342
95.178241,-1.451,-10.296,0.335
95.187914,-1.569,-10.412,0.315
95.197587,-1.53,-10.553,0.211
95.20726,-1.53,-10.398,0.238
95.216933,-1.373,-10.087,0.054
95.226606,-1.059,-9.937,-0.119
95.236279,-0.824,-9.762,-0.208
95.245952,-0.588,-9.619,-0.342
95.255625,-0.314,-9.389,-0.739
95.265298,-0.196,-9.167,-1.099
95.274971,-0.118,-8.908,-1.212
95.284644,-0.078,-8.771,-1.308
95.294317,-0.039,-8.621,-1.48
95.30399,0,-8.615,-1.519
95.313663,0,-8.712,-1.417
95.323325,0,-8.733,-1.301
95.332987,-0.039,-8.758,-1.385
95.342649,0.078,-8.887,-1.328
95.352311,0.235,-9.112,-1.408
95.361973,0.431,-9.305,-1.442
95.371635,0.628,-9.519,-1.36
95.381297,0.706,-9.68,-1.348
95.390959,0.745,-9.68,-1.348
95.400621,0.628,-9.571,-1.289
95.410283,0.431,-9.533,-1.283
95.419945,0.118,-9.462,-1.23
95.429607,-0.157,-9.501,-1.237
95.439269,-0.431,-9.63,-1.18
95.448931,-0.667,-9.753,-1.162
95.458583,-0.863,-9.76,-1.123
95.468235,-0.981,-9.689,-1.071
95.477887,-1.177,-9.728,-1.078
95.487539,-1.294,-9.76,-1.123
95.497191,-1.373,-9.869,-1.183
95.506843,-1.373,-9.985,-1.203
95.516495,-1.294,-10.023,-1.21
95.526147,-1.177,-10.037,-1.132
95.535799,-1.098,-10.03,-1.171
95.545451,-1.138,-10.037,-1.132
95.555103,-1.177,-10.005,-1.087
95.564755,-1.138,-10.114,-1.146
95.574407,-1.177,-10.328,-1.064
95.584059,-1.216,-10.444,-1.085
95.593724,-1.177,-10.567,-1.067
95.603389,-1.177,-10.457,-1.007
95.613054,-1.098,-10.496,-1.014
95.622719,-1.138,-10.482,-1.092
95.632384,-1.138,-10.412,-1.039
95.642049,-1.138,-10.373,-1.032
95.651714,-1.216,-10.328,-1.064
95.661379,-1.216,-10.528,-1.06
95.671044,-1.334,-10.844,-1.076
95.680709,-1.451,-11.121,-1.085
95.690374,-1.569,-11.391,-1.132
95.700039,-1.687,-11.405,-1.055
95.709704,-1.726,-11.16,-1.091
95.719377,-1.765,-10.876,-1.121
95.72905,-1.687,-10.578,-1.228
95.738723,-1.687,-10.403,-1.317
95.748396,-1.569,-10.119,-1.346
95.758069,-1.491,-9.86,-1.46
95.767742,-1.373,-9.51,-1.637
95.777415,-1.255,-9.36,-1.81
95.787088,-1.216,-9.34,-1.926
95.796761,-1.177,-9.242,-2.028
95.806434,-1.098,-9.137,-2.169
95.816107,-1.098,-9.149,-2.33
95.82578,-1.098,-9.206,-2.46
95.835453,-1.138,-9.147,-2.569
95.845126,-1.138,-8.978,-2.619
95.854812,-1.138,-8.901,-2.605
95.864498,-1.138,-8.713,-2.771
95.874184,-1.138,-8.699,-2.848
95.88387,-1.138,-8.724,-2.932
95.893556,-1.098,-8.685,-2.926
95.903242,-1.059,-8.717,-2.971
95.912928,-1.059,-8.794,-2.985
95.922614,-1.059,-8.788,-3.023
95.9323,-1.02,-8.833,-2.991
95.941986,-1.059,-8.91,-3.005
95.951672,-1.059,-8.903,-3.044
95.961358,-1.138,-8.865,-3.037
95.971044,-1.177,-8.788,-3.023
95.98073,-1.255,-8.903,-3.044
95.990408,-1.334,-8.928,-3.128
96.000086,-1.373,-9.09,-3.116
96.009764,-1.334,-9.122,-3.162
96.019442,-1.294,-9.115,-3.2
96.02912,-1.255,-9.178,-3.291
96.038798,-1.294,-9.217,-3.298
96.048476,-1.334,-9.172,-3.33
96.058154,-1.294,-9.165,-3.369
96.067832,-1.294,-9.119,-3.4
96.07751,-1.216,-9.113,-3.439
96.087188,-1.138,-9.106,-3.478
96.096866,-1.059,-9.099,-3.516
96.106544,-0.902,-9.124,-3.6
96.116222,-0.785,-9.201,-3.614
96.12592,-0.667,-9.247,-3.582
96.135618,-0.51,-9.388,-3.687
96.145316,-0.431,-9.565,-4.037
96.155014,-0.314,-9.451,-3.778
96.164712,-0.235,-9.397,-3.409
96.17441,-0.157,-9.403,-3.371
96.184108,-0.157,-9.344,-3.48
96.193806,-0.196,-9.156,-3.646
96.203504,-0.235,-9.065,-3.709
96.213202,-0.353,-9.09,-3.794
96.2229,-0.392,-9.206,-3.814
96.232598,-0.51,-9.283,-3.828
96.242296,-0.588,-9.224,-3.937
96.252007,-0.588,-9.249,-4.021
96.261718,-0.588,-9.172,-4.007
96.271429,-0.628,-9.21,-4.014
96.28114,-0.667,-9.204,-4.053
96.290851,-0.628,-9.126,-4.039
96.300562,-0.628,-9.042,-4.064
96.310273,-0.588,-9.035,-4.103
96.319984,-0.588,-8.933,-4.005
96.329695,-0.549,-8.758,-4.094
96.339406,-0.51,-8.899,-4.198
96.349117,-0.471,-9.022,-4.18
96.358828,-0.431,-9.022,-4.18
96.368539,-0.431,-8.931,-4.243
96.37825,-0.392,-8.86,-4.191
96.387951,-0.314,-8.924,-4.282
96.397652,-0.235,-8.906,-4.159
96.407353,-0.157,-8.86,-4.191
96.417054,-0.078,-9.015,-4.218
96.426755,-0.039,-9.144,-4.162
96.436456,-0.078,-9.229,-4.137
96.446157,-0.118,-9.074,-4.109
96.455858,-0.118,-8.926,-4.044
96.465559,-0.235,-8.926,-4.044
96.47526,-0.353,-9.004,-4.057
96.484961,-0.51,-9.165,-4.046
96.494662,-0.667,-9.14,-3.962
96.504363,-0.745,-9.101,-3.955
96.514064,-0.863,-8.792,-3.9
96.523756,-0.902,-8.94,-3.966
96.533448,-0.941,-9.103,-3.716
96.54314,-0.941,-8.967,-3.812
96.552832,-1.02,-8.954,-3.889
96.562524,-0.981,-8.876,-3.875
96.572216,-0.981,-8.96,-3.85
96.581908,-1.02,-8.922,-3.844
96.5916,-0.981,-8.96,-3.85
96.601292,-0.941,-9.044,-3.825
96.610984,-0.941,-9.044,-3.825
96.620676,-0.981,-9.069,-3.909
96.630368,-0.941,-9.115,-3.878
96.64006,-0.981,-9.238,-3.859
96.649752,-1.02,-9.244,-3.821
96.659472,-1.02,-9.251,-3.782
96.669192,-1.059,-9.206,-3.814
96.678912,-1.02,-9.251,-3.782
96.688632,-1.02,-9.251,-3.782
96.698352,-0.981,-9.226,-3.698
96.708072,-0.941,-9.219,-3.737
96.717792,-0.902,-9.258,-3.744
96.727512,-0.941,-9.303,-3.712
96.737232,-0.941,-9.342,-3.719
96.746952,-0.941,-9.356,-3.641
96.756672,-0.902,-9.278,-3.628
96.766392,-0.902,-9.247,-3.582
96.776112,-0.902,-9.208,-3.575
96.785833,-0.941,-9.24,-3.621
96.795554,-0.902,-9.253,-3.544
96.805275,-0.941,-9.299,-3.512
96.814996,-0.981,-9.299,-3.512
96.824717,-0.981,-9.222,-3.498
96.834438,-1.02,-9.222,-3.498
96.844159,-1.02,-9.119,-3.4
96.85388,-1.02,-9.049,-3.348
96.863601,-0.981,-9.19,-3.453
96.873322,-1.059,-9.422,-3.494
96.883043,-1.098,-9.537,-3.514
96.892764,-1.098,-9.699,-3.503
96.902485,-1.177,-9.719,-3.387
96.912206,-1.177,-9.701,-3.264
96.92192,-1.216,-9.753,-3.194
96.931634,-1.294,-9.799,-3.162
96.941348,-1.451,-9.831,-3.207
96.951062,-1.687,-9.896,-3.059
96.960776,-1.844,-9.883,-3.137
96.97049,-2.001,-9.967,-3.112
96.980204,-2.079,-10.044,-3.125
96.989918,-2.079,-10.121,-3.139
96.999632,-2.001,-10.09,-3.094
97.009346,-1.961,-10.076,-3.171
97.01906,-1.922,-10.076,-3.171
97.028774,-1.922,-10.115,-3.178
97.038488,-1.883,-10.069,-3.209
97.048202,-1.804,-10.006,-3.119
97.057905,-1.648,-9.851,-3.091
97.067608,-1.569,-9.774,-3.078
97.077311,-1.412,-9.676,-3.18
97.087014,-1.294,-9.553,-3.198
97.096717,-1.177,-9.494,-3.307
97.10642,-1.138,-9.424,-3.255
97.116123,-1.098,-9.431,-3.216
97.125826,-1.098,-9.469,-3.223
97.135529,-1.098,-9.501,-3.269
97.145232,-1.098,-9.508,-3.23
97.154935,-1.098,-9.508,-3.23
97.164638,-1.02,-9.462,-3.262
97.174341,-0.941,-9.462,-3.262
97.184044,-0.863,-9.378,-3.287
97.193755,-0.824,-9.319,-3.396
97.203466,-0.745,-9.281,-3.389
97.213177,-0.706,-9.242,-3.382
97.222888,-0.667,-9.197,-3.414
97.232599,-0.588,-9.235,-3.421
97.24231,-0.549,-9.288,-3.35
97.252021,-0.471,-9.333,-3.319
97.261732,-0.392,-9.288,-3.35
97.271443,-0.353,-9.288,-3.35
97.281154,-0.353,-9.294,-3.312
97.290865,-0.431,-9.319,-3.396
97.300576,-0.471,-9.288,-3.35
97.310287,-0.471,-9.365,-3.364
97.319999,-0.51,-9.442,-3.378
97.329711,-0.471,-9.435,-3.416
97.339423,-0.392,-9.376,-3.525
97.349135,-0.353,-9.299,-3.512
97.358847,-0.275,-9.292,-3.55
97.368559,-0.235,-9.299,-3.512
97.378271,-0.235,-9.26,-3.505
97.387983,-0.235,-9.215,-3.537
97.397695,-0.235,-9.215,-3.537
97.407407,-0.196,-9.285,-3.589
97.417119,-0.196,-9.324,-3.596
97.426831,-0.196,-9.324,-3.596
97.436543,-0.118,-9.331,-3.557
97.446255,-0.118,-9.331,-3.557
97.455959,-0.039,-9.331,-3.557
97.465663,0,-9.292,-3.55
97.475367,0.039,-9.278,-3.628
97.485071,0,-9.194,-3.653
97.494775,0,-9.188,-3.691
97.504479,-0.039,-9.156,-3.646
97.514183,-0.078,-9.092,-3.555
97.523887,-0.118,-9.099,-3.516
97.533591,-0.118,-9.099,-3.516
97.543295,-0.196,-9.106,-3.478
97.552999,-0.118,-9.106,-3.478
97.562703,-0.078,-9.176,-3.53
97.572407,-0.078,-9.208,-3.575
97.582111,-0.078,-9.215,-3.537
97.591831,-0.118,-9.253,-3.544
97.601551,-0.118,-9.299,-3.512
97.611271,-0.078,-9.306,-3.473
97.620991,-0.078,-9.274,-3.428
97.630711,0,-9.203,-3.375
97.640431,0.039,-9.203,-3.375
97.650151,0.078,-9.197,-3.414
97.659871,0.196,-9.197,-3.414
97.669591,0.235,-9.197,-3.414
97.679311,0.314,-9.158,-3.407
97.689031,0.431,-9.113,-3.439
97.698751,0.549,-9.074,-3.432
97.708471,0.628,-9.081,-3.394
97.7182,0.706,-9.14,-3.285
97.727929,0.785,-9.21,-3.337
97.737658,0.863,-9.281,-3.389
97.747387,0.902,-9.242,-3.382
97.757116,0.981,-9.281,-3.389
97.766845,1.059,-9.358,-3.403
97.776574,1.059,-9.397,-3.409
97.786303,1.059,-9.397,-3.409
97.796032,1.059,-9.397,-3.409
97.805761,1.02,-9.365,-3.364
97.81549,1.02,-9.294,-3.312
97.825219,0.981,-9.308,-3.235
97.834948,0.902,-9.269,-3.228
97.844677,0.824,-9.308,-3.235
97.85441,0.824,-9.353,-3.203
97.864143,0.745,-9.353,-3.203
97.873876,0.785,-9.335,-3.08
97.883609,0.824,-9.29,-3.112
97.893342,0.863,-9.219,-3.06
97.903075,0.941,-9.265,-3.028
97.912808,0.981,-9.303,-3.035
97.922541,1.02,-9.342,-3.041
97.932274,0.981,-9.303,-3.035
97.942007,0.941,-9.219,-3.06
97.95174,0.941,-9.226,-3.021
97.961473,0.902,-9.265,-3.028
97.971206,0.902,-9.303,-3.035
97.980939,0.902,-9.317,-2.957
97.990651,0.981,-9.349,-3.003
98.000363,1.02,-9.331,-2.88
98.010075,1.059,-9.299,-2.835
98.019787,1.177,-9.299,-2.835
98.029499,1.177,-9.235,-2.744
98.039211,1.216,-9.197,-2.737
98.048923,1.334,-9.228,-2.782
98.058635,1.451,-9.358,-2.726
98.068347,1.569,-9.403,-2.694
98.078059,1.648,-9.326,-2.68
98.087771,1.765,-9.287,-2.673
98.097483,1.844,-9.287,-2.673
98.107195,1.922,-9.249,-2.666
98.116907,2.079,-9.262,-2.589
98.126638,2.197,-9.262,-2.589
98.136369,2.236,-9.251,-2.428
98.1461,2.314,-9.251,-2.428
98.155831,2.432,-9.342,-2.364
98.165562,2.589,-9.349,-2.326
98.175293,2.667,-9.394,-2.294
98.185024,2.746,-9.394,-2.294
98.194755,2.785,-9.369,-2.21
98.204486,2.864,-9.324,-2.241
98.214217,2.942,-9.24,-2.267
98.223948,3.02,-9.156,-2.292
98.233679,3.138,-9.124,-2.246
98.24341,3.295,-9.085,-2.239
98.253149,3.334,-9.117,-2.285
98.262888,3.256,-9.156,-2.292
98.272627,3.177,-9.071,-2.317
98.282366,3.138,-8.91,-2.328
98.292105,3.138,-8.71,-2.332
98.301844,3.138,-8.672,-2.326
98.311583,3.217,-8.756,-2.301
98.321322,3.295,-8.847,-2.237
98.331061,3.373,-8.853,-2.198
98.3408,3.373,-8.815,-2.192
98.350539,3.413,-8.744,-2.139
98.360278,3.452,-8.59,-2.112
98.370017,3.491,-8.442,-2.046
98.379756,3.648,-8.365,-2.033
98.389474,3.844,-8.333,-1.987
98.399192,4.08,-8.378,-1.955
98.40891,4.197,-8.424,-1.923
98.418628,4.315,-8.54,-1.944
98.428346,4.354,-8.694,-1.971
98.438064,4.393,-8.778,-1.946
98.447782,4.472,-8.946,-1.896
98.4575,4.59,-8.921,-1.812
98.467218,4.746,-8.935,-1.735
98.476936,4.903,-9.012,-1.748
98.486654,5.099,-9.044,-1.794
98.496372,5.335,-9.051,-1.755
98.50609,5.531,-8.981,-1.703
98.515808,5.688,-8.903,-1.689
98.525503,5.884,-8.724,-1.578
98.535198,6.041,-8.646,-1.564
98.544893,6.237,-8.66,-1.487
98.554588,6.433,-8.719,-1.378
98.564283,6.59,-8.765,-1.346
98.573978,6.629,-8.733,-1.301
98.583673,6.551,-8.649,-1.326
98.593368,6.433,-8.558,-1.389
98.603063,6.394,-8.474,-1.414
98.612758,6.433,-8.319,-1.387
98.622453,6.433,-8.249,-1.335
98.632148,6.355,-8.217,-1.29
98.641843,6.237,-8.133,-1.315
98.651538,6.119,-8.158,-1.399
98.661204,6.041,-8.144,-1.476
98.67087,5.923,-8.178,-1.283
98.680536,5.962,-8.21,-1.328
98.690202,5.962,-8.333,-1.31
98.699868,5.884,-8.533,-1.305
98.709534,5.884,-8.571,-1.312
98.7192,5.845,-8.571,-1.312
98.728866,5.884,-8.617,-1.28
98.738532,5.962,-8.656,-1.287
98.748198,6.002,-8.733,-1.301
98.757864,6.002,-8.778,-1.269
98.76753,6.041,-8.894,-1.289
98.777196,6.041,-8.94,-1.258
98.786862,6.041,-8.894,-1.289
98.796524,6.159,-8.817,-1.276
98.806186,6.315,-8.733,-1.301
98.815848,6.551,-8.662,-1.249
98.82551,6.708,-8.656,-1.287
98.835172,6.708,-8.662,-1.249
98.844834,6.59,-8.61,-1.319
98.854496,6.59,-8.565,-1.351
98.864158,6.59,-8.519,-1.383
98.87382,6.629,-8.396,-1.401
98.883482,6.708,-8.274,-1.419
98.893144,6.786,-8.112,-1.43
98.902806,6.708,-7.997,-1.41
98.912468,6.708,-7.835,-1.421
98.922123,6.786,-7.688,-1.356
98.931778,6.708,-7.765,-1.369
98.941433,6.629,-8.178,-1.283
98.951088,6.394,-8.469,-1.215
98.960743,6.119,-8.465,-1.015
98.970398,6.119,-8.324,-0.91
98.980053,6.002,-8.331,-0.871
98.989708,5.766,-8.551,-0.751
98.999363,5.335,-8.674,-0.733
99.009018,4.864,-8.655,-0.61
99.018673,4.433,-8.599,-0.481
99.028328,4.197,-8.387,-0.324
99.037983,3.923,-8.299,-0.149
99.047638,3.57,-8.28,-0.026
99.057296,3.099,-8.519,-0.028
99.066954,2.667,-8.785,0.124
99.076612,2.275,-8.889,0.265
99.08627,1.922,-8.955,0.413
99.095928,1.53,-9.11,0.385
99.105586,1.138,-9.31,0.39
99.115244,0.824,-9.562,0.465
99.124902,0.549,-9.821,0.579
99.13456,0.353,-10.041,0.699
99.144218,0.118,-10.062,0.815
99.153876,-0.118,-10.075,0.892
99.163534,-0.235,-9.935,0.997
99.173192,-0.314,-9.748,1.069
99.18285,-0.431,-9.639,1.128
99.192528,-0.392,-9.607,1.174
99.202206,-0.471,-9.755,1.108
99.211884,-0.51,-9.891,1.203
99.221562,-0.549,-9.95,1.313
99.23124,-0.549,-9.873,1.326
99.240918,-0.588,-9.719,1.353
99.250596,-0.588,-9.473,1.317
99.260274,-0.588,-9.235,1.319
99.269952,-0.628,-9.105,1.262
99.27963,-0.706,-9.221,1.242
99.289308,-0.706,-9.375,1.215
99.298986,-0.745,-9.544,1.265
99.308664,-0.745,-9.389,1.292
99.318353,-0.706,-9.241,1.358
99.328042,-0.628,-9.112,1.301
99.337731,-0.549,-9.041,1.353
99.34742,-0.549,-9.112,1.301
99.357109,-0.588,-9.389,1.292
99.366798,-0.628,-9.641,1.367
99.376487,-0.667,-9.739,1.469
99.386176,-0.628,-9.7,1.476
99.395865,-0.51,-9.423,1.485
99.405554,-0.431,-9.114,1.54
99.415243,-0.392,-8.882,1.581
99.424932,-0.392,-8.805,1.594
99.434621,-0.392,-8.857,1.665
99.44431,-0.392,-8.826,1.71
99.454004,-0.275,-8.935,1.651
99.463698,-0.196,-8.966,1.606
99.473392,-0.157,-8.869,1.503
99.483086,-0.118,-8.785,1.478
99.49278,-0.118,-8.81,1.394
99.502474,-0.235,-8.964,1.367
99.512168,-0.471,-9.157,1.333
99.521862,-0.667,-9.403,1.369
99.531556,-0.902,-9.487,1.394
99.54125,-0.981,-9.448,1.401
99.550944,-0.981,-9.494,1.433
99.560638,-1.02,-9.423,1.485
99.570332,-1.059,-9.237,1.558
99.580026,-1.098,-9.121,1.578
99.589701,-1.216,-9.205,1.603
99.599376,-1.294,-9.471,1.756
99.609051,-1.412,-9.794,1.778
99.618726,-1.451,-10.018,1.699
99.628401,-1.491,-10.128,1.64
99.638076,-1.491,-10.205,1.626
99.647751,-1.53,-10.134,1.678
99.657426,-1.569,-10.05,1.653
99.667101,-1.53,-9.966,1.628
99.676776,-1.569,-9.875,1.565
99.686451,-1.451,-9.875,1.565
99.696126,-1.451,-9.896,1.681
99.705801,-1.451,-9.85,1.649
99.715476,-1.491,-9.798,1.578
99.72516,-1.491,-9.934,1.674
99.734844,-1.608,-9.923,1.835
99.744528,-1.648,-10.078,1.808
99.754212,-1.726,-10.053,1.892
99.763896,-1.804,-10.143,1.956
99.77358,-1.844,-10.157,2.033
99.783264,-1.883,-10.048,2.092
99.792948,-1.844,-9.816,2.133
99.802632,-1.765,-9.507,2.187
99.812316,-1.648,-9.078,2.462
99.822,-1.53,-8.635,2.66
99.831684,-1.412,-8.462,2.81
99.841368,-1.373,-8.38,3.023
99.851077,-1.334,-8.407,3.178
99.860786,-1.294,-8.678,3.13
99.870495,-1.412,-8.987,3.076
99.880204,-1.491,-9.155,3.126
99.889913,-1.53,-9.303,3.06
99.899622,-1.53,-9.496,3.026
99.909331,-1.569,-9.65,2.999
99.91904,-1.726,-9.812,3.01
99.928749,-1.922,-9.98,3.06
99.938458,-1.961,-10.032,3.13
99.948167,-1.883,-9.909,3.112
99.957876,-1.844,-9.607,3.205
99.967585,-1.726,-9.355,3.13
99.977295,-1.648,-9.434,3.355
99.987005,-1.608,-9.505,3.303
99.996715,-1.412,-9.434,3.355
100.006425,-1.412,-9.446,3.194
100.016135,-1.294,-9.507,3.542
100.025845,-1.569,-9.748,3.101
100.035555,-1.687,-9.805,3.648
100.045265,-1.726,-10.111,4.033
100.054975,-1.765,-10.486,4.126
100.064685,-1.804,-10.661,4.214
100.074395,-1.804,-10.552,4.273
100.084105,-1.765,-10.3,4.198
100.093815,-2.001,-10.295,3.721
100.103525,-2.275,-9.786,3.771
100.113254,-2.04,-8.873,4.012
100.122983,-1.804,-9.191,3.557
100.132712,-1.765,-10.048,3.446
100.142441,-1.961,-10.075,3.601
100.15217,-2.079,-9.836,3.603
100.161899,-2.275,-9.661,3.514
100.171628,-2.275,-9.65,3.676
100.181357,-2.354,-9.527,3.658
100.191086,-2.275,-9.398,3.601
100.200815,-2.197,-9.384,3.523
100.210544,-2.157,-9.307,3.537
100.220273,-2.157,-9.152,3.564
100.230002,-2.157,-8.85,3.657
100.239733,-2.04,-8.721,3.601
100.249464,-1.961,-8.953,3.56
100.259195,-2.04,-9.339,3.492
100.268926,-2.04,-9.636,3.598
100.278657,-2.157,-9.491,3.903
100.288388,-2.001,-9.157,4.041
100.298119,-1.844,-8.993,3.792
100.30785,-2.118,-9.293,4.137
100.317581,-2.393,-9.605,4.321
100.327312,-2.471,-9.071,4.455
100.337043,-2.354,-8.496,4.357
100.346774,-2.118,-8.957,4.037
100.356505,-2.236,-9.382,3.962
100.366236,-2.432,-9.014,3.907
100.375952,-2.589,-8.548,3.751
100.385668,-2.511,-8.359,3.585
100.395384,-2.55,-8.384,3.501
100.4051,-2.628,-8.398,3.578
100.414816,-2.628,-8.521,3.596
100.424532,-2.589,-8.843,3.619
100.434248,-2.55,-9.166,3.642
100.443964,-2.432,-9.225,3.751
100.45368,-2.197,-9.132,4.126
100.463396,-2.04,-9.286,4.098
100.473112,-1.804,-9.571,4.128
100.482828,-1.648,-9.752,4.255
100.492544,-1.608,-9.875,4.273
100.50226,-1.491,-9.907,4.228
100.511955,-1.177,-9.68,4.069
100.52165,-1.138,-9.371,4.123
100.531345,-1.216,-9.05,4.339
100.54104,-1.334,-8.934,4.36
100.550735,-1.412,-9.05,4.339
100.56043,-1.53,-9.127,4.326
100.570125,-1.569,-9.1,4.171
100.57982,-1.53,-9.041,4.062
100.589515,-1.53,-8.918,4.044
100.59921,-1.687,-8.764,4.071
100.608905,-2.079,-8.518,4.035
100.6186,-2.432,-8.287,4.075
100.628295,-2.511,-8.234,4.005
100.63799,-2.55,-8.234,4.005
100.647685,-2.471,-8.343,3.946
100.65737,-2.393,-8.414,3.894
100.667055,-2.314,-8.418,3.694
100.67674,-2.157,-8.387,3.739
100.686425,-1.883,-8.278,3.798
100.69611,-1.687,-8.253,3.882
100.705795,-1.608,-8.196,4.012
100.71548,-1.687,-8.216,4.128
100.725165,-1.883,-8.293,4.114
100.73485,-2.001,-8.518,4.035
100.744535,-2.118,-8.775,3.91
100.75422,-2.236,-8.916,3.805
100.763905,-2.275,-8.928,3.644
100.77359,-2.393,-8.959,3.598
100.783288,-2.628,-8.928,3.644
100.792986,-2.746,-8.689,3.646
100.802684,-2.981,-8.412,3.655
100.812382,-3.099,-8.082,3.594
100.82208,-3.06,-7.812,3.641
100.831778,-2.981,-7.58,3.682
100.841476,-2.864,-7.38,3.678
100.851174,-2.746,-7.482,3.58
100.860872,-2.707,-7.689,3.623
100.87057,-2.589,-7.832,3.757
100.880268,-2.354,-7.878,3.789
100.889966,-2.04,-7.794,3.764
100.899664,-1.648,-7.741,3.694
100.909347,-1.294,-7.932,3.421
100.91903,-1.059,-8.453,3.21
100.928713,-1.02,-9.105,3.294
100.938396,-1.098,-9.525,3.419
100.948079,-1.059,-9.616,3.483
100.957762,-1.098,-9.346,3.53
100.967445,-1.177,-8.953,3.56
100.977128,-1.412,-8.534,3.673
100.986811,-1.804,-8.239,3.805
100.996494,-2.157,-8.071,3.755
101.006177,-2.432,-8.103,3.71
101.01586,-2.55,-8.212,3.651
101.025543,-2.471,-8.198,3.573
101.035226,-2.314,-8.132,3.426
101.044917,-2.118,-8.171,3.419
101.054608,-1.961,-8.196,3.335
101.064299,-1.961,-8.28,3.36
101.07399,-2.001,-8.409,3.416
101.083681,-2.04,-8.584,3.505
101.093372,-2.04,-8.584,3.505
101.103063,-1.961,-8.507,3.519
101.112754,-1.844,-8.307,3.514
101.122445,-1.726,-8.062,3.478
101.132136,-1.648,-7.939,3.46
101.141827,-1.648,-8.037,3.562
101.151518,-1.726,-8.303,3.714
101.161209,-1.726,-8.555,3.789
101.170903,-1.608,-8.812,3.664
101.180597,-1.648,-8.914,3.567
101.190291,-1.53,-8.9,3.489
101.199985,-1.373,-8.725,3.401
101.209679,-1.177,-8.648,3.414
101.219373,-0.941,-8.596,3.344
101.229067,-0.863,-8.582,3.267
101.238761,-0.902,-8.621,3.26
101.248455,-0.981,-8.653,3.214
101.258149,-0.981,-8.916,3.128
101.267843,-0.981,-9.271,3.105
101.277537,-0.902,-9.646,3.199
101.287231,-0.902,-9.957,3.383
101.296925,-1.059,-10.089,3.678
101.306602,-1.334,-9.993,3.814
101.316279,-1.726,-9.8,3.848
101.325956,-2.04,-9.639,3.837
101.335633,-2.236,-9.755,3.817
101.34531,-2.197,-10.095,3.717
101.354987,-2.04,-10.38,3.746
101.364664,-1.883,-10.534,3.719
101.374341,-1.883,-10.482,3.649
101.384018,-2.197,-10.384,3.546
101.393695,-2.824,-10.3,3.521
101.403372,-3.766,-10.441,3.417
101.413049,-5.021,-10.677,3.176
101.422726,-6.315,-11.093,2.824
101.432403,-7.296,-11.4,2.531
101.44206,-7.492,-11.72,2.315
101.451717,-7.139,-11.779,2.424
101.461374,-5.884,-11.679,2.76
101.471031,-3.609,-11.804,3.017
101.480688,-0.431,-12.038,3.215
101.490345,3.57,-12.725,2.815
101.500002,7.375,-13.854,2.217
101.509659,9.964,-14.768,1.977
101.519316,12.199,-15.131,1.554
101.528973,13.808,-15.243,1.056
101.53863,14.396,-15.09,0.645
101.548287,13.965,-14.584,0.257
101.557944,12.67,-13.832,-0.168
101.567601,11.101,-13.034,-0.625
101.577284,9.101,-12.159,-1.069
101.586967,6.355,-11.546,-1.837
101.59665,3.02,-10.685,-2.203
101.606333,-1.098,-9.412,-2.416
101.616016,-5.531,-8.265,-3.051
101.625699,-9.218,-7.551,-3.482
101.635382,-11.18,-7.279,-3.673
101.645065,-11.611,-7.363,-3.648
101.654748,-11.376,-7.338,-3.564
101.664431,-11.062,-7.197,-3.46
101.674114,-10.16,-7.07,-3.278
101.683797,-8.904,-7.233,-3.028
101.69348,-7.335,-7.242,-2.751
101.703162,-5.727,-7.342,-2.41
101.712844,-4.393,-7.447,-2.269
101.722526,-3.413,-7.59,-2.135
101.732208,-2.707,-7.649,-2.026
101.74189,-2.001,-7.554,-1.89
101.751572,-1.373,-7.56,-1.851
101.761254,-1.02,-7.708,-1.917
101.770936,-1.02,-8.031,-1.894
101.780618,-1.216,-8.122,-1.83
101.7903,-1.53,-8.108,-1.908
101.799982,-1.844,-8.172,-1.999
101.809664,-2.157,-8.365,-2.033
101.819346,-2.393,-8.681,-2.048
101.829028,-2.628,-8.867,-2.121
101.838709,-2.824,-8.983,-2.142
101.84839,-2.981,-8.958,-2.057
101.858071,-3.099,-8.81,-1.992
101.867752,-3.217,-8.501,-1.937
101.877433,-3.099,-8.276,-1.858
101.887114,-2.903,-8.392,-1.878
101.896795,-2.707,-8.81,-1.992
101.906476,-2.628,-9.396,-2.055
101.916157,-2.589,-9.912,-2.066
101.925838,-2.55,-10.228,-2.082
101.935519,-2.432,-10.305,-2.096
101.9452,-2.275,-10.376,-2.148
101.954881,-2.079,-10.292,-2.173
101.964562,-1.883,-10.305,-2.096
101.974242,-1.804,-10.337,-2.141
101.983922,-1.608,-10.487,-1.969
101.993602,-1.53,-10.612,-1.712
102.003282,-1.648,-10.737,-1.455
102.012962,-1.765,-10.605,-1.073
102.022642,-1.883,-10.473,-0.692
102.032322,-2.04,-10.423,-0.523
102.042002,-2.236,-10.457,-0.33
102.051682,-2.432,-10.498,-0.099
102.061362,-2.55,-10.505,-0.06
102.071042,-2.511,-10.35,-0.033
102.080722,-2.432,-10.13,-0.153
102.090402,-2.314,-9.962,-0.203
102.100082,-2.197,-9.787,-0.292
102.109782,-2.04,-9.657,-0.349
102.119482,-1.844,-9.58,-0.335
102.129182,-1.687,-9.58,-0.335
102.138882,-1.569,-9.612,-0.38
102.148582,-1.569,-9.748,-0.285
102.158282,-1.687,-9.917,-0.235
102.167982,-1.804,-10.078,-0.224
102.177682,-1.804,-10.162,-0.199
102.187382,-1.844,-10.264,-0.296
102.197082,-1.804,-10.366,-0.394
102.206782,-1.726,-10.437,-0.446
102.216482,-1.608,-10.553,-0.467
102.226182,-1.608,-10.623,-0.519
102.235892,-1.765,-10.63,-0.48
102.245602,-1.922,-10.605,-0.396
102.255312,-2.079,-10.625,-0.28
102.265022,-2.314,-10.587,-0.273
102.274732,-2.511,-10.555,-0.228
102.284442,-2.746,-10.432,-0.246
102.294152,-3.02,-10.362,-0.194
102.303862,-3.373,-10.182,-0.083
102.313572,-3.727,-10.035,-0.017
102.323282,-4.158,-9.789,-0.053
102.332992,-4.472,-9.544,-0.09
102.342702,-4.59,-9.46,-0.115
102.352412,-4.433,-9.407,-0.185
102.362122,-4.197,-9.362,-0.217
102.371834,-3.883,-9.394,-0.262
102.381546,-3.57,-9.587,-0.296
102.391258,-3.256,-9.935,-0.358
102.40097,-2.864,-10.135,-0.353
102.410682,-2.393,-10.162,-0.199
102.420394,-1.844,-10.046,-0.178
102.430106,-1.334,-9.814,-0.137
102.439818,-0.785,-9.737,-0.124
102.44953,-0.314,-9.73,-0.162
102.459242,0.039,-9.891,-0.151
102.468954,0.235,-10.091,-0.146
102.478666,0.353,-10.253,-0.135
102.488378,0.431,-10.253,-0.135
102.49809,0.51,-10.253,-0.135
102.507824,0.353,-10.201,-0.205
102.517558,0.353,-10.046,-0.178
102.527292,0.118,-10.026,-0.294
102.537026,0,-9.98,-0.326
102.54676,-0.118,-9.973,-0.364
102.556494,-0.196,-9.96,-0.442
102.566228,-0.275,-9.953,-0.48
102.575962,-0.392,-9.946,-0.519
102.585696,-0.51,-9.939,-0.558
102.59543,-0.628,-9.985,-0.526
102.605164,-0.706,-9.946,-0.519
102.614898,-0.824,-9.96,-0.442
102.624632,-0.863,-9.96,-0.442
102.634377,-0.902,-9.953,-0.48
102.644122,-0.902,-9.882,-0.428
102.653867,-0.863,-9.914,-0.474
102.663612,-0.824,-9.985,-0.526
102.673357,-0.785,-10.107,-0.508
102.683102,-0.785,-10.217,-0.567
102.692847,-0.824,-10.339,-0.548
102.702592,-0.785,-10.391,-0.478
102.712337,-0.824,-10.276,-0.458
102.722082,-0.785,-10.198,-0.444
102.731827,-0.824,-10.153,-0.476
102.741572,-0.863,-10.223,-0.528
102.751317,-0.902,-10.23,-0.489
102.761062,-0.981,-10.223,-0.528
102.770811,-1.02,-10.339,-0.548
102.78056,-1.177,-10.437,-0.446
102.790309,-1.373,-10.735,-0.339
102.800058,-1.491,-10.928,-0.373
102.809807,-1.726,-11.18,-0.298
102.819556,-1.922,-11.355,-0.21
102.829305,-2.001,-11.407,-0.139
102.839054,-2.04,-11.355,-0.21
102.848803,-2.001,-11.341,-0.287
102.858552,-2.001,-11.18,-0.298
102.868301,-1.922,-10.935,-0.335
102.87805,-2.001,-10.619,-0.319
102.887799,-2.04,-10.289,-0.38
102.897548,-1.961,-10.139,-0.553
102.907272,-1.804,-10.098,-0.785
102.916996,-1.648,-10.257,-1.012
102.92672,-1.569,-10.307,-1.18
102.936444,-1.491,-10.242,-1.328
102.946168,-1.53,-10.092,-1.501
102.955892,-1.648,-9.885,-1.544
102.965616,-1.804,-9.651,-1.742
102.97534,-1.883,-9.437,-1.823
102.985064,-1.844,-9.455,-1.946
102.994788,-1.804,-9.674,-2.064
103.004512,-1.765,-9.719,-2.032
103.014236,-1.726,-9.719,-2.032
103.02396,-1.844,-9.655,-1.942
103.033684,-2.04,-9.462,-1.907
103.043381,-2.236,-9.455,-1.946
103.053078,-2.314,-9.48,-2.03
103.062775,-2.314,-9.674,-2.064
103.072472,-2.157,-9.79,-2.085
103.082169,-1.961,-9.86,-2.137
103.091866,-1.844,-9.905,-2.105
103.101563,-1.726,-9.976,-2.157
103.11126,-1.608,-10.162,-2.23
103.120957,-1.451,-10.31,-2.296
103.130654,-1.177,-10.387,-2.31
103.140351,-1.02,-10.317,-2.257
103.150048,-1.059,-10.235,-2.044
103.159745,-1.098,-10.173,-1.714
103.169442,-1.059,-10.21,-1.282
103.179154,-0.824,-10.394,-0.917
103.188866,-0.628,-10.766,-0.385
103.198578,-0.941,-11.291,-0.119
103.20829,-1.53,-11.807,-0.13
103.218002,-1.726,-12.018,-0.287
103.227714,-1.451,-12.075,-0.416
103.237426,-0.902,-11.68,-0.626
103.247138,-0.392,-11.06,-0.755
103.25685,0.039,-10.323,-0.864
103.266562,0.431,-9.737,-0.801
103.276274,0.824,-9.312,-0.726
103.285986,1.294,-9.217,-0.59
103.295698,1.648,-9.314,-0.487
103.305396,1.804,-9.405,-0.424
103.315094,1.765,-9.155,-0.26
103.324792,1.648,-8.783,-0.115
103.33449,1.177,-8.544,-0.112
103.344188,0.471,-8.635,-0.049
103.353886,-0.353,-9.053,-0.162
103.363584,-0.628,-9.162,-0.221
103.373282,-0.667,-9.251,-0.396
103.38298,-0.588,-9.139,-0.576
103.392678,-0.431,-8.705,-0.778
103.402376,-0.392,-8.299,-0.826
103.412074,-0.392,-7.917,-0.958
103.421772,-0.431,-7.606,-1.142
103.43147,-0.628,-7.533,-1.328
103.441152,-0.824,-7.544,-1.49
103.450834,-1.098,-7.774,-1.769
103.460516,-1.373,-8.056,-1.978
103.470198,-1.53,-8.433,-2.323
103.47988,-1.726,-8.894,-2.644
103.489562,-1.922,-9.183,-2.814
103.499244,-2.157,-9.497,-3.069
103.508926,-2.354,-9.908,-3.221
103.518608,-2.511,-10.385,-3.225
103.52829,-2.785,-10.812,-3.062
103.537972,-2.942,-10.794,-2.939
103.547654,-3.177,-10.653,-2.834
103.557336,-3.295,-10.28,-2.689
103.567018,-3.334,-9.967,-2.435
103.576677,-3.295,-9.819,-2.369
103.586336,-3.217,-9.762,-2.239
103.595995,-3.06,-9.892,-2.182
103.605654,-2.785,-9.989,-2.08
103.615313,-2.55,-10.028,-2.087
103.624972,-2.354,-9.964,-1.996
103.634631,-2.236,-9.849,-1.976
103.64429,-2.118,-9.546,-1.882
103.653949,-1.961,-9.212,-1.744
103.663608,-1.765,-9.019,-1.71
103.673267,-1.53,-9.09,-1.762
103.682926,-1.177,-9.233,-1.628
103.692585,-0.981,-9.355,-1.61
103.702244,-0.785,-9.258,-1.712
103.7119,-0.667,-9.258,-1.712
103.721556,-0.667,-9.303,-1.68
103.731212,-0.667,-9.49,-1.753
103.740868,-0.667,-9.637,-1.819
103.750524,-0.588,-9.76,-1.801
103.76018,-0.471,-9.689,-1.748
103.769836,0,-9.662,-1.903
103.779492,0.235,-9.849,-1.976
103.789148,0.353,-9.385,-1.894
103.798804,0.667,-8.958,-2.057
103.80846,0.745,-9.156,-2.292
103.818116,0.902,-9.796,-2.723
103.827772,0.981,-10.569,-2.859
103.837452,0.902,-11.271,-2.943
103.847132,0.706,-11.244,-3.098
103.856812,0.667,-10.644,-3.112
103.866492,0.941,-10.312,-2.734
103.876172,1.059,-9.892,-2.859
103.885852,1.098,-9.906,-3.459
103.895532,2.393,-9.676,-2.503
103.905212,1.255,-9.331,-2.88
103.914892,1.883,-8.397,-2.755
103.924572,1.216,-9.551,-2.76
103.934252,-1.334,-9.951,-3.428
103.943932,-2.589,-9.919,-2.705
103.953612,2.04,-9.712,-3.425
103.963291,-0.706,-9.908,-3.221
103.97297,-1.687,-10.36,-3.141
103.982649,-0.353,-9.951,-2.75
103.992328,1.334,-8.869,-2.56
104.002007,0.981,-7.779,-2.646
104.011686,-0.314,-7.956,-2.996
104.021365,-0.745,-8.706,-2.81
104.031044,-0.392,-9.449,-2.662
104.040723,-0.275,-9.601,-2.928
104.050402,-0.745,-9.701,-2.587
104.060081,-0.941,-9.808,-2.885
104.06976,-1.098,-9.983,-2.796
104.079439,-1.177,-9.485,-2.907
104.089118,-1.491,-9.206,-2.46
104.098823,-1.373,-8.533,-2.66
104.108528,-1.687,-9.331,-2.88
104.118233,-2.001,-9.383,-2.81
104.127938,-2.079,-9.472,-2.985
104.137643,-2.079,-9.085,-2.916
104.147348,-2.001,-8.867,-2.798
104.157053,-2.04,-8.783,-2.823
104.166758,-2.118,-8.744,-2.816
104.176463,-2.079,-9.008,-2.903
104.186168,-2.079,-9.119,-2.723
104.195873,-1.961,-9.417,-2.616
104.205578,-1.883,-9.533,-2.637
104.215283,-1.687,-9.726,-2.671
104.224984,-1.53,-10.003,-2.68
104.234685,-1.451,-10.165,-2.669
104.244386,-1.491,-10.049,-2.648
104.254087,-1.451,-9.999,-2.48
104.263788,-1.334,-9.974,-2.396
104.273489,-1.216,-9.892,-2.182
104.28319,-0.981,-9.796,-2.046
104.292891,-0.902,-9.796,-2.046
104.302592,-0.902,-9.783,-2.123
104.312293,-0.824,-9.726,-1.994
104.321994,-0.785,-9.571,-1.967
104.331695,-0.785,-9.424,-1.901
104.341396,-0.824,-9.54,-1.921
104.351097,-0.824,-9.733,-1.955
104.360824,-0.745,-9.933,-1.951
104.370551,-0.588,-10.049,-1.971
104.380278,-0.471,-10.08,-2.016
104.390005,-0.392,-9.88,-2.021
104.399732,-0.314,-9.739,-1.916
104.409459,-0.314,-9.553,-1.844
104.419186,-0.353,-9.43,-1.862
104.428913,-0.353,-9.424,-1.901
104.43864,-0.392,-9.455,-1.946
104.448367,-0.51,-9.565,-2.005
104.458094,-0.588,-9.719,-2.032
104.467821,-0.667,-9.771,-1.962
104.477548,-0.706,-9.669,-1.864
104.487281,-0.706,-9.617,-1.935
104.497014,-0.745,-9.687,-1.987
104.506747,-0.706,-9.933,-1.951
104.51648,-0.667,-10.192,-1.837
104.526213,-0.667,-10.283,-1.773
104.535946,-0.667,-10.296,-1.696
104.545679,-0.667,-10.317,-1.58
104.555412,-0.706,-10.33,-1.503
104.565145,-0.745,-10.298,-1.457
104.574878,-0.745,-10.267,-1.412
104.584611,-0.706,-10.337,-1.464
104.594344,-0.667,-10.383,-1.432
104.604077,-0.628,-10.389,-1.394
104.61381,-0.549,-10.389,-1.394
104.623534,-0.549,-10.298,-1.457
104.633258,-0.471,-10.073,-1.378
104.642982,-0.392,-9.926,-1.312
104.652706,-0.314,-9.785,-1.208
104.66243,-0.392,-9.746,-1.201
104.672154,-0.549,-9.83,-1.176
104.681878,-0.588,-9.939,-1.235
104.691602,-0.706,-10.017,-1.248
104.701326,-0.745,-9.946,-1.196
104.71105,-0.745,-9.837,-1.137
104.720774,-0.785,-9.792,-1.169
104.730498,-0.824,-9.823,-1.214
104.740222,-0.824,-9.785,-1.208
104.749946,-0.785,-9.83,-1.176
104.759683,-0.706,-9.767,-1.085
104.76942,-0.706,-9.798,-1.13
104.779157,-0.706,-9.76,-1.123
104.788894,-0.706,-9.767,-1.085
104.798631,-0.706,-9.837,-1.137
104.808368,-0.745,-9.928,-1.073
104.818105,-0.745,-10.005,-1.087
104.827842,-0.745,-10.083,-1.101
104.837579,-0.706,-10.237,-1.128
104.847316,-0.667,-10.367,-1.071
104.857053,-0.667,-10.373,-1.032
104.86679,-0.667,-10.342,-0.987
104.876527,-0.628,-10.303,-0.98
104.88627,-0.706,-10.244,-1.089
104.896013,-0.667,-10.212,-1.044
104.905756,-0.667,-10.16,-1.114
104.915499,-0.549,-10.223,-1.205
104.925242,-0.549,-10.392,-1.155
104.934985,-0.628,-10.451,-1.046
104.944728,-0.745,-10.342,-0.987
104.954471,-0.824,-10.194,-0.921
104.964214,-0.863,-9.962,-0.88
104.973957,-0.902,-9.808,-0.853
104.9837,-0.902,-9.769,-0.846
104.993443,-0.863,-9.853,-0.821
105.003186,-0.863,-9.86,-0.783
105.012929,-0.824,-9.86,-0.783
105.022677,-0.785,-9.898,-0.789
105.032425,-0.785,-9.905,-0.751
105.042173,-0.706,-9.957,-0.68
105.051921,-0.706,-9.919,-0.674
105.061669,-0.667,-9.867,-0.744
105.071417,-0.549,-9.937,-0.796
105.081165,-0.431,-9.937,-0.796
105.090913,-0.353,-9.969,-0.842
105.100661,-0.275,-10.085,-0.862
105.110409,-0.196,-10.13,-0.83
105.120157,-0.157,-10.137,-0.792
105.129905,-0.118,-10.144,-0.753
105.139653,-0.078,-10.073,-0.701
105.149401,-0.078,-10.073,-0.701
105.15913,-0.157,-10.08,-0.662
105.168859,-0.078,-10.126,-0.63
105.178588,-0.039,-10.255,-0.573
105.188317,0.039,-10.378,-0.555
105.198046,0.039,-10.462,-0.53
105.207775,0.078,-10.462,-0.53
105.217504,0.078,-10.423,-0.523
105.227233,0.118,-10.339,-0.548
105.236962,0.078,-10.185,-0.521
105.246691,0,-10.101,-0.546
105.25642,0,-10.017,-0.571
105.266149,-0.039,-10.017,-0.571
105.275878,-0.078,-9.978,-0.564
105.285607,-0.118,-9.855,-0.583
105.295316,-0.196,-9.855,-0.583
105.305025,-0.235,-9.901,-0.551
105.314734,-0.314,-9.848,-0.621
105.324443,-0.275,-9.848,-0.621
105.334152,-0.275,-9.971,-0.603
105.343861,-0.275,-10.101,-0.546
105.35357,-0.314,-10.114,-0.469
105.363279,-0.353,-10.037,-0.455
105.372988,-0.392,-9.844,-0.421
105.382697,-0.353,-9.837,-0.46
105.392406,-0.392,-9.921,-0.435
105.402115,-0.471,-9.998,-0.449
105.411824,-0.51,-10.166,-0.399
105.421533,-0.549,-10.264,-0.296
105.431206,-0.588,-10.264,-0.296
105.440879,-0.549,-10.201,-0.205
105.450552,-0.549,-10.091,-0.146
105.460225,-0.549,-10.007,-0.171
105.469898,-0.588,-9.891,-0.151
105.479571,-0.588,-9.885,-0.189
105.489244,-0.588,-9.891,-0.151
105.498917,-0.588,-9.891,-0.151
105.50859,-0.588,-9.86,-0.105
105.518263,-0.588,-9.814,-0.137
105.527936,-0.628,-9.782,-0.092
105.537609,-0.588,-9.776,-0.13
105.547282,-0.588,-9.782,-0.092
105.556955,-0.588,-9.866,-0.067
105.566625,-0.588,-9.944,-0.08
105.576295,-0.628,-10.08,0.015
105.585965,-0.667,-10.094,0.092
105.595635,-0.706,-10.055,0.099
105.605305,-0.667,-10.01,0.067
105.614975,-0.706,-9.939,0.12
105.624645,-0.667,-9.939,0.12
105.634315,-0.706,-9.978,0.113
105.643985,-0.667,-10.023,0.145
105.653655,-0.667,-10.055,0.099
105.663325,-0.667,-10.101,0.131
105.672995,-0.706,-10.139,0.124
105.682665,-0.667,-10.153,0.201
105.692328,-0.667,-10.216,0.11
105.701991,-0.549,-10.339,0.129
105.711654,-0.471,-10.475,0.224
105.721317,-0.392,-10.573,0.326
105.73098,-0.314,-10.644,0.274
105.740643,-0.235,-10.598,0.242
105.750306,-0.157,-10.56,0.249
105.759969,-0.157,-10.475,0.224
105.769632,-0.196,-10.45,0.308
105.779295,-0.157,-10.412,0.315
105.788958,-0.118,-10.38,0.36
105.798621,-0.078,-10.348,0.406
105.808284,-0.039,-10.387,0.399
105.817947,0.039,-10.387,0.399
105.827586,0.118,-10.328,0.29
105.837225,0.118,-10.289,0.297
105.846864,0.196,-10.187,0.395
105.856503,0.196,-10.078,0.454
105.866142,0.235,-10.032,0.422
105.875781,0.314,-10.025,0.383
105.88542,0.392,-10.071,0.415
105.895059,0.51,-10.039,0.46
105.904698,0.51,-10.071,0.415
105.914337,0.588,-10.071,0.415
105.923976,0.588,-10.078,0.454
105.933615,0.628,-10.039,0.46
105.943254,0.628,-10.046,0.499
105.952893,0.628,-10,0.467
105.962536,0.667,-10.007,0.506
105.972179,0.785,-10.116,0.447
105.981822,0.863,-10.162,0.479
105.991465,0.824,-10.169,0.517
106.001108,0.824,-10.175,0.556
106.010751,0.902,-10.021,0.583
106.020394,0.941,-9.937,0.558
106.030037,1.138,-9.866,0.61
106.03968,1.294,-9.873,0.649
106.049323,1.334,-10.112,0.647
106.058966,1.255,-10.453,0.547
106.068609,1.059,-10.575,0.565
106.078252,0.902,-10.434,0.67
106.087898,0.785,-10.241,0.704
106.097544,0.588,-10.035,0.66
106.10719,0.353,-10.053,0.538
106.116836,0.196,-10.225,0.388
106.126482,0.078,-10.316,0.451
106.136128,0,-10.253,0.542
106.145774,-0.078,-10.169,0.517
106.15542,-0.196,-9.814,0.54
106.165066,-0.392,-9.453,0.524
106.174712,-0.51,-9.246,0.481
106.184358,-0.706,-9.53,0.51
106.194004,-0.824,-9.782,0.585
106.20365,-0.902,-10.06,0.576
106.213296,-1.059,-10.196,0.672
106.22295,-1.138,-10.171,0.756
106.232604,-1.216,-10.003,0.706
106.242258,-1.177,-9.848,0.733
106.251912,-1.098,-9.803,0.701
106.261566,-1.02,-9.957,0.674
106.27122,-0.902,-10.196,0.672
106.280874,-0.745,-10.364,0.722
106.290528,-0.667,-10.357,0.683
106.300182,-0.588,-10.273,0.658
106.309836,-0.549,-10.182,0.594
106.31949,-0.549,-9.982,0.59
106.329144,-0.588,-9.944,0.597
106.338798,-0.588,-9.975,0.551
106.348452,-0.549,-10.021,0.583
106.358131,-0.549,-10.098,0.569
106.36781,-0.51,-10.028,0.622
106.377489,-0.549,-9.95,0.635
106.387168,-0.549,-9.841,0.694
106.396847,-0.588,-9.757,0.669
106.406526,-0.745,-9.596,0.658
106.416205,-0.863,-9.505,0.594
106.425884,-0.902,-9.621,0.574
106.435563,-0.902,-9.737,0.554
106.445242,-0.902,-9.853,0.533
106.454921,-0.863,-9.944,0.597
106.4646,-0.863,-9.912,0.642
106.474279,-0.785,-9.841,0.694
106.484,-0.785,-9.771,0.747
106.493721,-0.785,-9.771,0.747
106.503442,-0.824,-9.939,0.797
106.513163,-0.667,-10.037,0.899
106.522884,-0.628,-10.191,0.872
106.532605,-0.588,-10.184,0.833
106.542326,-0.549,-10.128,0.963
106.552047,-0.471,-10.005,0.944
106.561768,-0.51,-9.896,1.003
106.571489,-0.51,-9.896,1.003
106.58121,-0.471,-10.109,1.085
106.590931,-0.392,-10.316,1.129
106.600652,-0.353,-10.362,1.16
106.610373,-0.275,-10.369,1.199
106.620094,-0.235,-10.221,1.265
106.629815,-0.157,-9.982,1.267
106.639536,-0.118,-9.821,1.256
106.649252,-0.039,-9.725,1.392
106.658968,-0.039,-9.771,1.424
106.668684,0.039,-9.771,1.424
106.6784,0.078,-9.764,1.385
106.688116,0.118,-9.796,1.34
106.697832,0.118,-9.834,1.333
106.707548,0.118,-9.828,1.294
106.717264,0.196,-9.821,1.256
106.72698,0.235,-9.821,1.256
106.736696,0.275,-9.898,1.242
106.746412,0.353,-9.937,1.235
106.756128,0.392,-9.944,1.274
106.765844,0.392,-9.95,1.313
106.77556,0.353,-9.95,1.313
106.785291,0.314,-9.912,1.319
106.795022,0.235,-9.907,1.519
106.804753,0.275,-10.023,1.499
106.814484,0.235,-10.153,1.556
106.824215,0.235,-10.23,1.542
106.833946,0.196,-10.237,1.581
106.843677,0.196,-10.243,1.619
106.853408,0.196,-10.25,1.658
106.863139,0.157,-10.25,1.658
106.87287,0.078,-10.303,1.728
106.882601,0.078,-10.432,1.785
106.892332,0.078,-10.471,1.778
106.902063,0.078,-10.393,1.792
106.911784,0,-10.239,1.819
106.921505,0,-10.078,1.808
106.931226,0.039,-9.916,1.797
106.940947,0,-9.8,1.817
106.950668,0,-9.671,1.76
106.960389,0,-9.594,1.774
106.97011,-0.039,-9.548,1.742
106.979831,-0.078,-9.464,1.717
106.989552,-0.078,-9.341,1.699
106.999273,-0.078,-9.212,1.642
107.008994,-0.078,-9.057,1.669
107.018715,-0.078,-8.935,1.651
107.028436,-0.039,-8.903,1.696
107.038157,-0.039,-8.871,1.742
107.047891,0,-8.787,1.717
107.057625,-0.039,-8.78,1.678
107.067359,-0.039,-9.019,1.676
107.077093,-0.118,-9.355,1.776
107.086827,-0.157,-9.691,1.876
107.096561,-0.235,-9.846,1.849
107.106295,-0.275,-9.937,1.912
107.116029,-0.314,-9.828,1.971
107.125763,-0.314,-9.718,2.031
107.135497,-0.275,-9.603,2.051
107.145231,-0.235,-9.655,2.121
107.154965,-0.235,-9.778,2.14
107.164699,-0.275,-9.823,2.171
107.174417,-0.196,-9.759,2.262
107.184135,-0.196,-9.668,2.199
107.193853,-0.235,-9.682,2.276
107.203571,-0.275,-9.734,2.346
107.213289,-0.314,-9.787,2.417
107.223007,-0.353,-9.814,2.571
107.232725,-0.392,-9.859,2.603
107.242443,-0.353,-9.873,2.68
107.252161,-0.392,-9.918,2.712
107.261879,-0.392,-10.009,2.776
107.271597,-0.431,-10.016,2.815
107.281315,-0.353,-9.984,2.86
107.291033,-0.353,-9.946,2.867
107.300751,-0.314,-9.946,2.867
107.310475,-0.235,-9.946,2.867
107.320199,-0.235,-9.907,2.874
107.329923,-0.235,-9.914,2.912
107.339647,-0.196,-9.959,2.944
107.349371,-0.235,-9.934,3.028
107.359095,-0.275,-9.889,2.996
107.368819,-0.275,-9.864,3.08
107.378543,-0.275,-9.871,3.119
107.388267,-0.235,-9.877,3.158
107.397991,-0.235,-9.871,3.119
107.407715,-0.235,-9.98,3.06
107.417439,-0.235,-10.102,3.078
107.427163,-0.196,-10.071,3.124
107.436892,-0.235,-10.077,3.162
107.446621,-0.196,-10.071,3.124
107.45635,-0.157,-10.039,3.169
107.466079,-0.118,-10.032,3.13
107.475808,-0.118,-10.025,3.092
107.485537,-0.078,-10.243,2.974
107.495266,-0.078,-10.475,2.933
107.504995,-0.078,-10.475,2.933
107.514724,-0.039,-10.346,2.876
107.524453,-0.039,-10.139,2.833
107.534182,-0.039,-9.925,2.751
107.543911,-0.078,-9.718,2.708
107.55364,-0.118,-9.364,2.73
107.563369,-0.078,-9.119,2.694
107.573095,-0.039,-8.912,2.651
107.582821,-0.039,-8.905,2.612
107.592547,-0.196,-9.189,2.642
107.602273,-0.078,-9.512,2.665
107.611999,0,-9.827,2.649
107.621725,0,-9.982,2.621
107.631451,0.039,-10.143,2.633
107.641177,0.118,-10.284,2.528
107.650903,0.196,-10.355,2.476
107.660629,0.275,-10.4,2.508
107.670355,0.314,-10.393,2.469
107.680081,0.431,-10.193,2.465
107.689807,0.471,-9.987,2.421
107.699533,0.471,-9.818,2.371
107.70923,0.471,-9.728,2.308
107.718927,0.51,-9.598,2.251
107.728624,0.549,-9.566,2.296
107.738321,0.431,-9.587,2.412
107.748018,0.431,-9.489,2.31
107.757715,0.431,-9.391,2.208
107.767412,0.314,-9.359,2.253
107.777109,0.235,-9.303,2.383
107.786806,0.157,-9.38,2.369
107.796503,0.157,-9.548,2.419
107.8062,0.157,-9.568,2.535
107.815897,0.196,-9.53,2.542
107.825594,0.196,-9.498,2.587
107.835291,0.275,-9.453,2.555
107.844983,0.196,-9.4,2.485
107.854675,0.235,-9.407,2.524
107.864367,0.157,-9.407,2.524
107.874059,0.157,-9.543,2.619
107.883751,0.078,-9.628,2.644
107.893443,0,-9.659,2.599
107.903135,-0.039,-9.666,2.637
107.912827,-0.078,-9.628,2.644
107.922519,-0.157,-9.466,2.633
107.932211,-0.196,-9.473,2.671
107.941903,-0.275,-9.448,2.755
107.951595,-0.235,-9.487,2.749
107.961287,-0.235,-9.462,2.833
107.97095,-0.196,-9.398,2.924
107.980613,-0.235,-9.443,2.955
107.990276,-0.275,-9.65,2.999
107.999939,-0.314,-9.78,3.055
108.009602,-0.275,-9.871,3.119
108.019265,-0.196,-9.909,3.112
108.028928,-0.118,-9.825,3.087
108.038591,-0.118,-9.787,3.094
108.048254,-0.078,-9.857,3.042
108.057917,-0.039,-9.818,3.049
108.06758,-0.039,-9.889,2.996
108.077243,0,-9.927,2.99
108.086906,0,-9.966,2.983
108.096569,0,-10.05,3.008
108.106232,-0.039,-10.032,3.13
108.115895,-0.039,-9.8,3.171
108.125558,-0.039,-9.614,3.244
108.135221,-0.235,-9.523,3.18
108.144884,-0.353,-9.541,3.058
108.154547,-0.314,-9.534,3.019
108.16421,-0.235,-9.534,3.019
108.173873,-0.196,-9.457,3.033
108.183536,-0.275,-9.418,3.039
108.193199,-0.431,-9.443,2.955
108.202862,-0.549,-9.598,2.928
108.212525,-0.628,-9.868,2.88
108.222188,-0.588,-9.977,2.821
108.231826,-0.51,-9.9,2.835
108.241464,-0.353,-9.725,2.746
108.251102,-0.196,-9.518,2.703
108.26074,-0.118,-9.357,2.692
108.270378,-0.078,-9.241,2.712
108.280016,-0.157,-9.009,2.753
108.289654,-0.118,-9.146,2.849
108.299292,-0.078,-9.282,2.944
108.30893,0,-9.38,3.046
108.318568,0.157,-9.464,3.071
108.328206,0.235,-9.593,3.128
108.337844,0.275,-9.723,3.185
108.347482,0.235,-9.768,3.217
108.35712,0.196,-9.691,3.23
108.366764,0.118,-9.607,3.205
108.376408,0.078,-9.471,3.11
108.386052,0,-9.387,3.085
108.395696,-0.118,-9.387,3.085
108.40534,-0.235,-9.425,3.078
108.414984,-0.353,-9.471,3.11
108.424628,-0.392,-9.562,3.174
108.434272,-0.51,-9.698,3.269
108.443916,-0.628,-9.737,3.262
108.45356,-0.667,-9.75,3.339
108.463204,-0.745,-9.757,3.378
108.472848,-0.863,-9.764,3.417
108.482492,-0.941,-9.816,3.487
108.492121,-0.981,-9.855,3.48
108.50175,-1.02,-9.984,3.537
108.511379,-1.098,-10.145,3.549
108.521008,-1.059,-10.177,3.503
108.530637,-1.059,-10.1,3.517
108.540266,-1.02,-10.009,3.453
108.549895,-0.981,-9.964,3.421
108.559524,-0.941,-10.041,3.408
108.569153,-0.863,-10.196,3.38
108.578782,-0.745,-10.227,3.335
108.588411,-0.628,-10.027,3.33
108.59804,-0.471,-9.743,3.301
108.607669,-0.353,-9.505,3.303
108.617298,-0.275,-9.452,3.233
108.626943,-0.196,-9.446,3.194
108.636588,-0.157,-9.439,3.155
108.646233,-0.157,-9.548,3.096
108.655878,-0.196,-9.541,3.058
108.665523,-0.157,-9.573,3.012
108.675168,-0.118,-9.605,2.967
108.684813,-0.078,-9.675,2.914
108.694458,0.039,-9.752,2.901
108.704103,0.118,-9.83,2.887
108.713748,0.157,-9.823,2.849
108.723393,0.235,-9.823,2.849
108.733038,0.275,-9.848,2.765
108.742683,0.314,-9.841,2.726
108.752338,0.314,-9.887,2.758
108.761993,0.392,-9.88,2.719
108.771648,0.392,-9.827,2.649
108.781303,0.51,-9.709,2.43
108.790958,0.549,-9.716,2.469
108.800613,0.628,-9.755,2.462
108.810268,0.745,-9.962,2.506
108.819923,0.785,-10.15,2.671
108.829578,0.824,-10.273,2.69
108.839233,0.824,-10.364,2.753
108.848888,0.706,-10.371,2.792
108.858543,0.628,-10.377,2.831
108.868198,0.549,-10.377,2.831
108.877853,0.588,-10.493,2.81
108.887531,0.706,-10.764,2.762
108.897209,0.824,-11.055,2.831
108.906887,0.902,-11.275,2.951
108.916565,0.981,-11.366,3.015
108.926243,1.02,-11.566,3.019
108.935921,1.098,-11.741,3.108
108.945599,1.412,-11.979,3.106
108.955277,1.961,-12.379,3.115
108.964955,2.511,-12.593,3.197
108.974633,2.864,-12.522,3.249
108.984311,2.864,-12.154,3.194
108.993989,2.746,-11.766,3.024
109.003667,2.511,-11.5,2.872
109.013345,2.236,-11.189,2.687
109.023022,2.001,-10.955,2.49
109.032699,1.804,-10.721,2.292
109.042376,1.648,-10.48,2.056
109.052053,1.451,-10.148,1.756
109.06173,1.177,-9.83,1.533
109.071407,0.863,-9.589,1.297
109.081084,0.471,-9.271,1.074
109.090761,0.157,-8.978,0.767
109.100438,-0.118,-8.685,0.46
109.110115,-0.314,-8.458,0.301
109.119792,-0.471,-8.346,0.122
109.129469,-0.588,-8.337,-0.156
109.139146,-0.706,-8.36,-0.478
109.148823,-0.706,-8.367,-0.44
109.158526,-0.706,-8.185,-0.567
109.168229,-0.785,-8.021,-0.817
109.177932,-0.667,-7.994,-0.971
109.187635,-0.549,-8.083,-1.146
109.197338,-0.431,-8.192,-1.205
109.207041,-0.314,-8.21,-1.328
109.216744,-0.157,-8.267,-1.458
109.226447,-0.196,-8.253,-1.535
109.23615,-0.196,-8.446,-1.569
109.245853,-0.235,-8.535,-1.744
109.255556,-0.196,-8.56,-1.828
109.265259,-0.118,-8.676,-1.848
109.274962,-0.078,-8.799,-1.83
109.284675,-0.118,-8.915,-1.851
109.294388,-0.078,-9.031,-1.871
109.304101,-0.118,-9.115,-1.846
109.313814,-0.118,-9.301,-1.919
109.323527,-0.157,-9.515,-1.837
109.33324,-0.196,-9.658,-1.703
109.342953,-0.118,-9.819,-1.692
109.352666,-0.078,-9.885,-1.544
109.362379,-0.078,-9.86,-1.46
109.372092,-0.118,-9.835,-1.376
109.381805,-0.196,-9.842,-1.337
109.391518,-0.235,-10.003,-1.326
109.401231,-0.235,-10.101,-1.223
109.410944,-0.196,-10.192,-1.16
109.420689,-0.157,-10.282,-1.096
109.430434,-0.078,-10.405,-1.078
109.440179,-0.039,-10.489,-1.053
109.449924,-0.039,-10.457,-1.007
109.459669,-0.078,-10.355,-0.91
109.469414,-0.078,-10.207,-0.844
109.479159,-0.118,-10.053,-0.817
109.488904,-0.157,-9.976,-0.803
109.498649,-0.118,-9.982,-0.764
109.508394,-0.078,-9.989,-0.726
109.518139,-0.039,-10.042,-0.655
109.527884,0.078,-9.887,-0.628
109.537629,0.157,-9.68,-0.671
109.547374,0.235,-9.589,-0.735
109.557119,0.235,-9.492,-0.837
109.566864,0.196,-9.446,-0.869
109.576609,0.078,-9.569,-0.851
109.586354,-0.039,-9.692,-0.833
109.596099,-0.157,-9.821,-0.776
109.605844,-0.196,-9.944,-0.758
109.615589,-0.196,-10.028,-0.733
109.625334,-0.196,-10.067,-0.739
109.635079,-0.235,-10.098,-0.785
109.644824,-0.235,-10.098,-0.785
109.654569,-0.275,-10.13,-0.83
109.664314,-0.235,-10.169,-0.837
109.674059,-0.235,-10.169,-0.837
109.683824,-0.157,-10.201,-0.883
109.693589,-0.118,-10.232,-0.928
109.703354,-0.078,-10.232,-0.928
109.713119,-0.078,-10.194,-0.921
109.722884,-0.078,-10.148,-0.953
109.732649,-0.118,-10.096,-1.023
109.742414,-0.118,-10.205,-1.082
109.752179,-0.157,-10.244,-1.089
109.761944,-0.196,-10.314,-1.142
109.771709,-0.235,-10.276,-1.135
109.781474,-0.235,-10.314,-1.142
109.791239,-0.275,-10.269,-1.173
109.801004,-0.314,-10.262,-1.212
109.810761,-0.275,-10.217,-1.244
109.820518,-0.314,-10.255,-1.251
109.830275,-0.314,-10.21,-1.282
109.840032,-0.431,-10.126,-1.307
109.849789,-0.51,-10.01,-1.287
109.859546,-0.549,-9.978,-1.242
109.869303,-0.588,-9.985,-1.203
109.87906,-0.628,-9.939,-1.235
109.888817,-0.706,-9.971,-1.28
109.898574,-0.706,-9.894,-1.267
109.908331,-0.706,-9.88,-1.344
109.918088,-0.667,-9.821,-1.453
109.927845,-0.628,-9.776,-1.485
109.937602,-0.588,-9.724,-1.555
109.947369,-0.588,-9.755,-1.601
109.957136,-0.588,-9.794,-1.607
109.966903,-0.549,-9.794,-1.607
109.97667,-0.51,-9.801,-1.569
109.986437,-0.51,-9.839,-1.576
109.996204,-0.471,-9.839,-1.576
110.005971,-0.353,-9.839,-1.576
110.015738,-0.275,-9.833,-1.614
110.025505,-0.196,-9.871,-1.621
110.035272,-0.157,-9.91,-1.628
110.045039,-0.157,-9.858,-1.698
110.054806,-0.196,-9.819,-1.692
110.064573,-0.235,-9.819,-1.692
110.074325,-0.275,-9.812,-1.73
110.084077,-0.275,-9.851,-1.737
110.093829,-0.353,-9.851,-1.737
110.103581,-0.392,-9.883,-1.782
110.113333,-0.392,-9.953,-1.835
110.123085,-0.431,-9.921,-1.789
110.132837,-0.51,-9.992,-1.841
110.142589,-0.628,-10.051,-1.732
110.152341,-0.667,-10.051,-1.732
110.162093,-0.706,-10.044,-1.771
110.171845,-0.667,-10.096,-1.701
110.181597,-0.628,-10.135,-1.707
110.191349,-0.588,-10.212,-1.721
110.201101,-0.628,-10.38,-1.671
110.210856,-0.667,-10.503,-1.653
110.220611,-0.628,-10.517,-1.576
110.230366,-0.588,-10.626,-1.635
110.240121,-0.706,-10.98,-1.657
110.249876,-0.785,-11.03,-1.825
110.259631,-0.941,-11.055,-1.909
110.269386,-0.941,-10.919,-2.005
110.279141,-0.863,-10.86,-2.114
110.288896,-0.745,-10.608,-2.189
110.298651,-0.628,-10.439,-2.239
110.308406,-0.51,-10.194,-2.275
110.318161,-0.392,-9.853,-2.176
110.327916,-0.196,-9.721,-2.471
110.337662,-0.196,-9.624,-2.573
110.347408,-0.078,-9.624,-2.573
110.357154,-0.039,-9.61,-2.65
110.3669,0.039,-9.578,-2.605
110.376646,0.118,-9.915,-2.505
110.386392,0.078,-10.146,-2.546
110.396138,0.039,-10.321,-2.457
110.405884,-0.039,-10.219,-2.36
110.41563,-0.078,-9.91,-2.305
110.425376,-0.039,-9.567,-2.444
110.435122,0,-9.203,-2.698
110.444868,-0.039,-8.858,-2.398
110.454614,-0.039,-8.742,-2.378
110.46436,0.157,-8.553,-2.544
110.474102,0,-8.358,-2.071
110.483844,0.196,-8.522,-2.498
110.493586,0.431,-8.694,-2.648
110.503328,0.51,-8.876,-3.198
110.51307,0.235,-8.553,-2.544
110.522812,0.392,-9.369,-2.887
110.532554,0.51,-9.019,-3.064
110.542296,0.471,-9.049,-2.671
110.552038,0.471,-9.081,-2.716
110.56178,0.235,-9.108,-2.562
110.571522,0,-9.217,-2.621
110.581264,-0.235,-9.456,-2.623
110.591006,-0.235,-9.59,-2.766
110.600748,-0.157,-9.671,-2.98
110.610455,-0.118,-9.971,-3.312
110.620162,-0.039,-10.626,-3.666
110.629869,-0.157,-11.242,-4.014
110.639576,-0.157,-11.055,-3.941
110.649283,0,-10.287,-4.005
110.65899,0.078,-9.431,-3.893
110.668697,0.118,-8.335,-3.78
110.678404,0.157,-8.031,-3.925
110.688111,0.157,-8.354,-3.903
110.697818,0.196,-8.49,-3.807
110.707525,0.275,-8.67,-3.919
110.717232,0.431,-8.826,-3.707
110.726939,0.549,-8.626,-3.712
110.736646,0.549,-8.485,-3.607
110.746349,0.588,-8.542,-3.737
110.756052,0.667,-8.604,-3.389
110.765755,0.785,-8.688,-3.364
110.775458,0.902,-9.133,-3.323
110.785161,0.824,-9.435,-3.416
110.794864,0.745,-9.494,-3.307
110.804567,0.706,-9.456,-3.3
110.81427,0.667,-9.437,-3.178
110.823973,0.667,-9.574,-3.082
110.833676,0.51,-9.862,-3.253
110.843379,0.314,-9.778,-3.278
110.853082,0.118,-9.537,-3.514
110.862785,-0.118,-9.613,-3.766
110.872454,-0.353,-9.535,-3.753
110.882123,-0.471,-9.019,-3.741
110.891792,-0.51,-8.156,-3.669
110.901461,-0.314,-7.536,-3.798
110.91113,-0.118,-7.154,-3.93
110.920799,0.235,-7.088,-4.078
110.930468,0.706,-7.474,-4.146
110.940137,1.177,-7.983,-4.196
110.949806,1.648,-8.249,-4.044
110.959475,2.157,-8.288,-4.05
110.969144,2.707,-8.251,-3.805
110.978813,3.099,-8.272,-3.689
110.988482,3.413,-8.356,-3.664
110.998151,3.452,-8.342,-3.741
111.00782,3.217,-8.392,-3.91
111.017483,2.903,-8.572,-4.021
111.027146,2.55,-8.449,-4.039
111.036809,2.511,-8.708,-3.925
111.046472,2.354,-8.97,-4.25
111.056135,2.275,-9.206,-4.491
111.065798,2.471,-9.576,-4.198
111.075461,2.589,-9.824,-3.923
111.085124,2.55,-9.817,-3.962
111.094787,2.471,-9.444,-3.816
111.10445,2.471,-9.092,-3.555
111.114113,2.314,-8.874,-3.437
111.123776,2.236,-8.849,-3.353
111.133439,2.079,-8.765,-3.378
111.143102,2.079,-8.726,-3.371
111.152757,1.961,-9.078,-3.632
111.162412,1.687,-9.608,-3.566
111.172067,1.451,-10.003,-3.357
111.181722,1.412,-9.849,-3.33
111.191377,1.412,-9.753,-3.194
111.201032,1.412,-9.774,-3.078
111.210687,1.451,-9.742,-3.032
111.220342,1.569,-9.633,-2.973
111.229997,1.569,-9.51,-2.991
111.239652,1.491,-9.419,-3.055
111.249307,1.412,-9.29,-3.112
111.258962,1.373,-9.212,-3.098
111.268617,1.334,-9.265,-3.028
111.278249,1.255,-9.433,-2.978
111.287881,1.255,-9.447,-2.9
111.297513,1.216,-9.39,-2.771
111.307145,1.138,-9.656,-2.619
111.316777,0.981,-9.883,-2.46
111.326409,0.902,-9.949,-2.312
111.336041,0.981,-9.937,-2.151
111.345673,1.098,-9.86,-2.137
111.355305,1.216,-9.905,-2.105
111.364937,1.294,-10.021,-2.126
111.374569,1.255,-10.105,-2.101
111.384201,1.255,-10.144,-2.107
111.393833,1.216,-9.964,-1.996
111.403465,1.177,-9.733,-1.955
111.413096,1.177,-9.642,-2.019
111.422727,1.098,-9.862,-1.898
111.432358,1.138,-10.178,-1.914
111.441989,1.059,-10.346,-1.864
111.45162,1.02,-10.146,-1.869
111.461251,1.098,-9.91,-1.628
111.470882,1.255,-9.78,-1.685
111.480513,1.294,-10.224,-1.882
111.490144,1.294,-10.648,-1.957
111.499775,1.412,-10.628,-2.073
111.509406,1.491,-10.267,-2.089
111.519037,1.608,-9.944,-2.112
111.528668,1.648,-9.962,-2.235
111.538292,1.648,-10.194,-2.275
111.547916,1.648,-10.367,-2.425
111.55754,1.608,-10.43,-2.516
111.567164,1.608,-10.378,-2.587
111.576788,1.53,-10.224,-2.559
111.586412,1.373,-9.876,-2.498
111.596036,1.255,-9.637,-2.496
111.60566,1.138,-9.701,-2.587
111.615284,0.902,-9.817,-2.607
111.624908,0.745,-9.726,-2.671
111.634532,0.549,-9.719,-2.71
111.644156,0.353,-9.726,-2.671
111.65378,0.196,-9.765,-2.678
111.663404,0.078,-9.778,-2.6
111.673037,0,-9.74,-2.594
111.68267,-0.157,-9.599,-2.489
111.692303,-0.275,-9.483,-2.469
111.701936,-0.275,-9.483,-2.469
111.711569,-0.314,-9.567,-2.444
111.721202,-0.353,-9.535,-2.398
111.730835,-0.314,-9.528,-2.437
111.740468,-0.314,-9.465,-2.346
111.750101,-0.392,-9.387,-2.332
111.759734,-0.549,-9.394,-2.294
111.769367,-0.863,-9.401,-2.255
111.779,-1.255,-9.446,-2.223
111.788633,-1.687,-9.537,-2.16
111.798266,-2.079,-9.705,-2.11
111.807887,-2.471,-9.926,-1.989
111.817508,-2.746,-10.083,-1.778
111.827129,-3.06,-10.021,-1.448
111.83675,-3.373,-9.848,-1.298
111.846371,-3.256,-9.701,-1.233
111.855992,-1.687,-9.717,-0.917
111.865613,1.569,-10.576,-0.789
111.875234,5.06,-12.405,-1.032
111.884855,7.649,-14.343,-1.334
111.894476,9.885,-15.129,-1.393
111.904097,11.493,-15,-1.45
111.913718,12.16,-14.064,-1.564
111.923339,11.807,-12.755,-1.532
111.93296,10.434,-11.246,-1.505
111.942601,8.434,-10.137,-1.469
111.952242,6.041,-9.053,-1.517
111.961883,2.864,-7.66,-1.51
111.971524,-0.745,-6.27,-1.942
111.981165,-4.393,-5.302,-2.687
111.990806,-7.571,-4.793,-3.315
112.000447,-9.611,-4.468,-3.576
112.010088,-10.866,-4.479,-3.737
112.019729,-11.415,-4.632,-4.003
112.02937,-11.18,-4.902,-4.051
112.039011,-10.474,-5.372,-4.094
112.048652,-9.414,-6.025,-4.01
112.058293,-8.355,-6.677,-3.926
112.067962,-7.257,-7.333,-4.041
112.077631,-6.198,-7.774,-3.801
112.0873,-5.256,-8.06,-3.532
112.096969,-4.393,-8.404,-3.394
112.106638,-3.805,-8.663,-3.28
112.116307,-3.609,-8.728,-3.132
112.125976,-3.766,-8.826,-3.03
112.135645,-3.883,-8.91,-3.005
112.145314,-3.962,-9.015,-2.864
112.154983,-4.04,-9.099,-2.839
112.164652,-4.08,-9.015,-2.864
112.174321,-4.04,-8.963,-2.935
112.18399,-4.001,-8.833,-2.991
112.193659,-3.805,-8.794,-2.985
112.203332,-3.452,-8.738,-2.855
112.213005,-3.138,-8.692,-2.887
112.222678,-2.903,-8.808,-2.907
112.232351,-2.667,-8.815,-2.869
112.242024,-2.432,-8.815,-2.869
112.251697,-2.275,-8.853,-2.876
112.26137,-2.157,-8.867,-2.798
112.271043,-2.04,-8.822,-2.83
112.280716,-1.961,-8.917,-2.966
112.290389,-1.883,-9.174,-3.091
112.300062,-1.922,-9.385,-3.248
112.309735,-2.04,-9.392,-3.21
112.319408,-2.118,-9.353,-3.203
112.329081,-2.157,-9.269,-3.228
112.338788,-2.236,-9.315,-3.196
112.348495,-2.275,-9.508,-3.23
112.358202,-2.314,-9.644,-3.134
112.367909,-2.354,-9.606,-3.128
112.377616,-2.314,-9.56,-3.159
112.387323,-2.314,-9.528,-3.114
112.39703,-2.354,-9.497,-3.069
112.406737,-2.432,-9.476,-3.184
112.416444,-2.55,-9.553,-3.198
112.426151,-2.628,-9.637,-3.173
112.435858,-2.667,-9.606,-3.128
112.445565,-2.628,-9.465,-3.023
112.455272,-2.589,-9.208,-2.898
112.465009,-2.55,-8.924,-2.928
112.474746,-2.511,-8.776,-2.862
112.484483,-2.432,-8.738,-2.855
112.49422,-2.432,-8.79,-2.785
112.503957,-2.432,-8.899,-2.844
112.513694,-2.432,-9.201,-2.937
112.523431,-2.354,-9.478,-2.946
112.533168,-2.236,-9.646,-2.896
112.542905,-2.118,-9.744,-2.794
112.552642,-1.961,-9.603,-2.689
112.562379,-1.765,-9.481,-2.707
112.572116,-1.765,-9.481,-2.707
112.581853,-1.765,-9.59,-2.766
112.59159,-1.844,-9.906,-2.782
112.601335,-2.04,-10.137,-2.823
112.61108,-2.157,-10.28,-2.689
112.620825,-2.236,-10.126,-2.662
112.63057,-2.236,-10.158,-2.707
112.640315,-2.354,-10.087,-2.655
112.65006,-2.432,-9.876,-2.498
112.659805,-2.432,-9.719,-2.71
112.66955,-2.471,-9.603,-2.689
112.679295,-2.432,-9.442,-2.7
112.68904,-2.432,-9.312,-2.757
112.698785,-2.393,-9.074,-2.755
112.70853,-2.236,-8.99,-2.78
112.718275,-2.157,-9.06,-2.832
112.72802,-2.079,-9.119,-2.723
112.737753,-2.079,-9.21,-2.66
112.747486,-2.04,-9.224,-2.582
112.757219,-1.961,-9.36,-2.487
112.766952,-1.961,-9.503,-2.353
112.776685,-1.922,-9.608,-2.212
112.786418,-1.922,-9.512,-2.076
112.796151,-1.883,-9.449,-1.985
112.805884,-1.844,-9.469,-1.869
112.815617,-1.765,-9.49,-1.753
112.82535,-1.726,-9.528,-1.76
112.835083,-1.608,-9.626,-1.657
112.844816,-1.451,-9.678,-1.587
112.854549,-1.451,-9.671,-1.626
112.864282,-1.569,-9.851,-1.737
112.874011,-1.804,-10.051,-1.732
112.88374,-1.922,-10.103,-1.662
112.893469,-1.961,-10.217,-1.921
112.903198,-2.001,-10.312,-2.057
112.912927,-1.883,-10.196,-2.037
112.922656,-1.687,-10.042,-2.01
112.932385,-1.53,-9.68,-2.026
112.942114,-1.53,-9.019,-1.71
112.951843,-1.451,-8.701,-1.933
