Time,AccelerometerX,AccelerometerY,AccelerometerZ
90.003585,-1.294,-10.839,1.156
90.013273,-1.216,-9.837,1.572
90.022961,-1.098,-9.471,1.756
90.032649,-1.059,-9.839,1.81
90.042337,-1.138,-10.459,1.94
90.052025,-1.334,-10.936,1.935
90.061713,-1.687,-11.35,2.022
90.071401,-2.118,-11.511,2.033
90.081089,-2.471,-11.564,2.104
90.090774,-2.746,-11.53,1.91
90.100459,-2.864,-11.484,1.879
90.110144,-2.864,-11.432,1.808
90.119829,-2.628,-11.236,1.604
90.129514,-2.511,-10.925,1.419
90.139199,-2.354,-10.543,1.288
90.148884,-2.118,-10.162,1.156
90.158569,-1.922,-9.735,0.992
90.168254,-1.648,-9.448,0.724
90.177939,-1.491,-9.253,0.519
90.187624,-1.294,-9.051,0.276
90.197309,-1.138,-8.887,0.026
90.206994,-0.981,-8.699,-0.14
90.216679,-0.824,-8.51,-0.306
90.226364,-0.628,-8.451,-0.415
90.236049,-0.353,-8.321,-0.471
90.245734,-0.196,-8.321,-0.471
90.255419,-0.078,-8.521,-0.467
90.265104,-0.039,-8.889,-0.412
90.274789,-0.039,-9.303,-0.326
90.284474,-0.078,-9.896,-0.351
90.294159,-0.157,-10.387,-0.278
90.303844,-0.235,-10.769,-0.146
90.313529,-0.314,-10.944,-0.058
90.323214,-0.392,-11.196,0.017
90.332899,-0.588,-11.23,0.211
90.342584,-0.785,-11.075,0.238
90.352269,-0.981,-10.798,0.247
90.361987,-1.138,-10.45,0.308
90.371705,-1.294,-10.057,0.338
90.381423,-1.53,-9.546,0.149
90.391141,-1.608,-9.105,-0.092
90.400859,-1.687,-8.717,-0.262
90.410577,-1.804,-8.335,-0.394
90.420295,-1.922,-8.171,-0.644
90.430013,-1.922,-8.035,-0.74
90.439731,-1.922,-7.983,-0.81
90.449449,-1.961,-7.962,-0.926
90.459167,-1.922,-8.096,-1.069
90.468885,-1.844,-8.308,-1.226
90.478603,-1.804,-8.54,-1.267
90.488325,-1.844,-8.817,-1.276
90.498047,-1.804,-9.126,-1.33
90.507769,-1.765,-9.533,-1.283
90.517491,-1.687,-9.855,-1.26
90.527213,-1.569,-10.076,-1.139
90.536935,-1.491,-10.148,-0.953
90.546657,-1.412,-10.169,-0.837
90.556379,-1.334,-10.53,-0.821
90.566101,-1.216,-11.137,-0.769
90.575823,-1.177,-11.519,-0.637
90.585545,-1.177,-11.732,-0.555
90.595267,-1.098,-12.009,-0.564
90.604989,-1.02,-12.537,-0.737
90.614711,-0.941,-12.673,-0.641
90.624433,-0.863,-12.209,-0.56
90.634155,-0.785,-11.809,-0.569
90.643877,-0.706,-11.307,-0.48
90.653599,-0.471,-10.875,-0.444
90.663321,-0.157,-10.655,-0.564
90.673043,0.157,-10.719,-0.655
90.682765,0.471,-10.776,-0.785
90.692487,0.785,-10.762,-0.862
90.702209,1.059,-10.696,-1.01
90.711931,1.255,-10.521,-1.098
90.721653,1.491,-10.385,-1.194
90.731375,1.608,-10.23,-1.167
90.741097,1.765,-10.03,-1.171
90.750819,1.922,-9.869,-1.183
90.760527,2.157,-9.83,-1.176
90.770235,2.275,-9.844,-1.098
90.779943,2.354,-9.812,-1.053
90.789651,2.393,-9.78,-1.008
90.799359,2.275,-9.742,-1.001
90.809067,2.079,-9.717,-0.917
90.818775,1.922,-9.755,-0.923
90.828483,1.648,-9.685,-0.871
90.838191,1.412,-9.608,-0.858
90.847899,1.216,-9.537,-0.805
90.857607,0.941,-9.453,-0.83
90.867315,0.667,-9.408,-0.862
90.877023,0.392,-9.278,-0.919
90.886731,0.157,-9.219,-1.028
90.896448,0,-9.089,-1.085
90.906165,-0.196,-9.076,-1.162
90.915882,-0.275,-9.055,-1.278
90.925599,-0.314,-9.035,-1.394
90.935316,-0.392,-8.937,-1.496
90.945033,-0.471,-8.917,-1.612
90.95475,-0.588,-8.871,-1.644
90.964467,-0.588,-8.812,-1.753
90.974184,-0.628,-8.806,-1.792
90.983901,-0.628,-8.837,-1.837
90.993618,-0.51,-8.869,-1.883
91.003335,-0.353,-8.869,-1.883
91.013052,-0.275,-8.901,-1.928
91.022784,-0.118,-8.894,-1.967
91.032516,-0.039,-8.926,-2.012
91.042248,0.039,-8.926,-2.012
91.05198,0.078,-8.965,-2.019
91.061712,0.039,-8.958,-2.057
91.071444,0.039,-9.074,-2.078
91.081176,0.039,-9.221,-2.144
91.090908,0.039,-9.401,-2.255
91.10064,0.078,-9.503,-2.353
91.110372,0.118,-9.535,-2.398
91.120104,0.157,-9.49,-2.43
91.129836,0.157,-9.406,-2.455
91.139568,0.157,-9.36,-2.487
91.1493,0.157,-9.431,-2.539
91.159029,0.196,-9.662,-2.58
91.168758,0.235,-9.765,-2.678
91.178487,0.235,-9.919,-2.705
91.188216,0.235,-9.874,-2.737
91.197945,0.157,-9.796,-2.723
91.207674,0.118,-9.712,-2.748
91.217403,0.078,-9.783,-2.8
91.227132,-0.039,-9.867,-2.775
91.236861,-0.235,-10.169,-2.869
91.24659,-0.431,-10.608,-2.866
91.256319,-0.745,-10.744,-2.771
91.266048,-0.941,-11.548,-2.952
91.275777,-1.138,-11.776,-2.793
91.285506,-1.294,-11.88,-2.652
91.295216,-1.255,-11.907,-2.498
91.304926,-1.334,-11.273,-2.028
91.314636,-1.334,-10.394,-1.594
91.324346,-1.177,-9.61,-1.296
91.334056,-0.941,-9.848,-1.298
91.343766,-0.902,-10.455,-1.246
91.353476,-0.981,-10.503,-0.976
91.363186,-1.059,-10.035,-0.694
91.372896,-1.177,-9.771,-0.608
91.382606,-1.334,-9.812,-0.376
91.392316,-1.648,-9.776,-0.13
91.402026,-1.844,-9.739,0.115
91.411736,-1.961,-9.696,0.322
91.421446,-2.04,-9.814,0.54
91.431156,-2.001,-9.919,0.681
91.440864,-1.922,-9.894,0.765
91.450572,-1.765,-9.764,0.708
91.46028,-1.53,-9.816,0.779
91.469988,-1.216,-10.096,1.008
91.479696,-0.863,-10.337,1.244
91.489404,-0.471,-10.616,1.474
91.499112,-0.235,-10.682,1.622
91.50882,-0.039,-10.664,1.744
91.518528,0.118,-10.477,1.817
91.528236,0.196,-10.162,1.833
91.537944,0.275,-9.955,1.79
91.547652,0.314,-9.728,1.631
91.55736,0.314,-9.63,1.528
91.567087,0.196,-9.525,1.387
91.576814,0.078,-9.407,1.169
91.586541,0,-9.328,0.944
91.596268,-0.118,-9.223,0.803
91.605995,-0.275,-9.048,0.715
91.615722,-0.353,-8.835,0.633
91.625449,-0.392,-8.737,0.531
91.635176,-0.431,-8.776,0.524
91.644903,-0.471,-8.692,0.499
91.65463,-0.471,-8.621,0.551
91.664357,-0.431,-8.435,0.624
91.674084,-0.471,-8.287,0.69
91.683811,-0.51,-8.171,0.71
91.693528,-0.51,-8.069,0.808
91.703245,-0.628,-8.089,0.924
91.712962,-0.667,-8.444,0.901
91.722679,-0.745,-8.71,1.053
91.732396,-0.785,-9.071,1.069
91.742113,-0.824,-9.341,1.022
91.75183,-0.824,-9.671,1.083
91.761547,-0.902,-9.903,1.042
91.771264,-0.981,-10.05,0.976
91.780981,-1.059,-10.012,0.983
91.790698,-1.059,-9.998,0.906
91.800415,-1.098,-10.159,0.917
91.810132,-1.138,-10.282,0.935
91.819849,-1.02,-10.264,1.058
91.829585,-1.059,-10.116,1.124
91.839321,-0.981,-10.084,1.169
91.849057,-0.941,-10.253,1.219
91.858793,-0.863,-10.653,1.229
91.868529,-0.745,-11.362,1.183
91.878265,-0.667,-11.75,1.354
91.888001,-0.785,-11.366,1.66
91.897737,-0.628,-11.159,1.617
91.907473,-0.549,-11.591,1.581
91.917209,-0.667,-11.614,1.935
91.926945,-0.706,-11.539,2.188
91.936681,-0.471,-11.377,2.176
91.946417,-0.275,-11.398,2.292
91.956159,-0.118,-11.509,2.472
91.965901,0.078,-10.918,2.735
91.975643,0.196,-10.107,2.878
91.985385,0.431,-9.932,2.79
91.995127,0.628,-10.018,3.053
92.004869,0.863,-10.034,3.369
92.014611,1.294,-10.023,3.53
92.024353,1.726,-10.057,3.723
92.034095,2.079,-10.291,3.921
92.043837,2.432,-10.395,4.062
92.053579,2.785,-10.616,4.183
92.063321,3.06,-10.759,4.317
92.073063,3.177,-10.734,4.401
92.082805,3.217,-10.632,4.498
92.092527,3.138,-10.463,4.448
92.102249,2.942,-10.2,4.535
92.111971,2.785,-10.039,4.523
92.121693,2.471,-9.87,4.473
92.131415,2.197,-9.702,4.423
92.141137,1.922,-9.598,4.282
92.150859,1.648,-9.409,4.117
92.160581,1.412,-9.175,3.919
92.170303,1.138,-9.018,3.707
92.180025,0.902,-8.816,3.464
92.189747,0.667,-8.621,3.26
92.199469,0.471,-8.516,3.119
92.209191,0.314,-8.366,2.946
92.218913,0.196,-8.262,2.805
92.228625,0.078,-8.241,2.689
92.238337,-0.039,-8.196,2.658
92.248049,-0.078,-8.201,2.458
92.257761,-0.157,-8.289,2.283
92.267473,-0.157,-8.378,2.108
92.277185,-0.157,-8.441,2.017
92.286897,-0.118,-8.435,1.978
92.296609,-0.118,-8.491,1.849
92.306321,-0.118,-8.491,1.849
92.316033,-0.078,-8.491,1.849
92.325745,-0.078,-8.523,1.803
92.335457,-0.078,-8.523,1.803
92.345169,-0.039,-8.614,1.867
92.354881,-0.039,-8.66,1.899
92.364568,0.039,-8.764,2.04
92.374255,0.078,-8.81,2.071
92.383942,0.157,-8.9,2.135
92.393629,0.157,-8.985,2.16
92.403316,0.196,-9.062,2.146
92.413003,0.235,-9.184,2.165
92.42269,0.314,-9.269,2.19
92.432377,0.353,-9.107,2.178
92.442064,0.392,-9.371,2.092
92.451751,0.353,-9.732,2.108
92.461438,0.314,-10.132,2.117
92.471125,0.353,-10.371,2.115
92.480812,0.353,-10.48,2.056
92.490499,0.353,-10.589,1.997
92.500184,0.353,-10.73,1.892
92.509869,0.353,-10.748,1.769
92.519554,0.314,-10.664,1.744
92.529239,0.196,-10.464,1.74
92.538924,0.118,-10.303,1.728
92.548609,0.039,-10.057,1.692
92.558294,0,-9.889,1.642
92.567979,-0.118,-9.703,1.715
92.577664,-0.235,-9.587,1.735
92.587349,-0.314,-9.689,1.637
92.597034,-0.392,-10.5,1.494
92.606719,-0.549,-11.468,1.563
92.616404,-0.824,-11.568,1.904
92.626088,-0.981,-11.42,1.969
92.635772,-1.059,-11.266,1.997
92.645456,-1.216,-11.37,2.138
92.65514,-1.334,-11.018,2.399
92.664824,-1.373,-10.407,2.546
92.674508,-1.334,-9.68,2.715
92.684192,-1.373,-8.966,2.96
92.693876,-1.216,-9.346,2.853
92.70356,-1.255,-9.946,2.867
92.713244,-1.491,-10.077,3.162
92.722928,-1.726,-9.821,3.287
92.732612,-1.922,-9.789,3.333
92.742296,-2.157,-9.875,3.596
92.75198,-2.393,-9.793,3.81
92.761721,-2.511,-9.73,3.901
92.771462,-2.511,-9.989,4.014
92.781203,-2.432,-10.3,4.198
92.790944,-2.236,-10.527,4.358
92.800685,-2.04,-10.716,4.523
92.810426,-1.844,-10.813,4.626
92.820167,-1.569,-11.136,4.648
92.829908,-1.373,-11.22,4.673
92.839649,-1.216,-11.375,4.646
92.84939,-0.981,-11.309,4.499
92.859131,-0.785,-11.172,4.403
92.868872,-0.628,-10.843,4.342
92.878613,-0.471,-10.384,4.223
92.888354,-0.392,-9.845,3.88
92.898078,-0.314,-9.43,3.555
92.907802,-0.353,-8.943,3.282
92.917526,-0.275,-8.58,3.028
92.92725,-0.235,-8.146,2.826
92.936974,-0.157,-7.764,2.694
92.946698,-0.157,-7.439,2.432
92.956422,-0.196,-7.135,2.287
92.966146,-0.157,-6.946,2.121
92.97587,-0.196,-6.874,1.935
92.985594,-0.235,-6.905,1.889
92.995318,-0.275,-6.93,1.805
93.005042,-0.353,-7.053,1.823
93.014766,-0.392,-7.169,1.803
93.02449,-0.431,-7.278,1.744
93.034214,-0.549,-7.376,1.846
93.043938,-0.588,-7.53,1.819
93.053662,-0.667,-7.498,1.864
93.063386,-0.785,-7.383,1.885
93.07311,-0.785,-7.492,1.826
93.082834,-0.824,-7.717,1.746
93.092558,-0.902,-7.973,1.621
93.102282,-0.902,-8.128,1.594
93.112006,-0.941,-8.23,1.496
93.12173,-1.02,-8.269,1.49
93.131454,-1.138,-8.101,1.44
93.141178,-1.216,-7.869,1.48
93.150902,-1.334,-7.63,1.483
93.160609,-1.412,-7.508,1.464
93.170316,-1.53,-7.751,1.262
93.180023,-1.608,-8.208,1.142
93.18973,-1.648,-8.587,1.035
93.199437,-1.648,-8.767,0.924
93.209144,-1.608,-8.707,0.815
93.218851,-1.569,-8.662,0.783
93.228558,-1.569,-8.778,0.762
93.238265,-1.569,-8.901,0.781
93.247972,-1.53,-8.967,0.928
93.257679,-1.412,-9.116,1.101
93.267386,-1.373,-9.305,1.267
93.277093,-1.334,-9.596,1.335
93.2868,-1.255,-10.221,1.265
93.296516,-1.177,-11.073,1.354
93.306232,-1.138,-11.757,1.392
93.315948,-0.981,-12.691,1.267
93.325664,-0.941,-12.911,1.388
93.33538,-0.902,-13.22,1.333
93.345096,-0.824,-13.85,1.063
93.354812,-0.902,-14.011,1.074
93.364528,-0.863,-13.759,0.999
93.374244,-0.824,-13.075,0.961
93.38396,-0.628,-12.616,0.843
93.393676,-0.51,-12.08,0.738
93.403392,-0.275,-11.652,0.574
93.413108,-0.039,-11.053,0.561
93.422793,0.275,-10.478,0.463
93.432478,0.588,-10.291,0.535
93.442163,0.863,-10.594,0.442
93.451848,1.059,-11.207,0.533
93.461533,1.216,-11.466,0.647
93.471218,1.373,-11.571,0.788
93.480903,1.373,-11.514,0.917
93.490588,1.334,-11.502,1.079
93.500273,1.294,-11.382,1.299
93.509958,1.294,-11.255,1.481
93.519643,1.294,-11.173,1.694
93.529328,1.216,-10.961,1.851
93.539013,1.177,-10.712,2.015
93.548698,1.098,-10.448,2.101
93.558383,0.981,-10.157,2.033
93.568066,0.785,-9.834,2.01
93.577749,0.588,-9.453,1.878
93.587432,0.471,-9.194,1.765
93.597115,0.314,-9.16,1.571
93.606798,0.118,-9.055,1.431
93.616481,0,-8.841,1.349
93.626164,-0.157,-8.692,1.176
93.635847,-0.392,-8.426,1.024
93.64553,-0.51,-8.11,1.04
93.655213,-0.549,-7.749,1.024
93.664896,-0.667,-7.194,1.042
93.674579,-0.745,-6.64,1.06
93.684262,-0.706,-6.022,1.169
93.693922,-0.667,-5.66,1.153
93.703582,-0.549,-5.583,1.166
93.713242,-0.314,-6.06,1.162
93.722902,-0.235,-6.635,1.26
93.732562,-0.118,-7.217,1.396
93.742222,0,-7.785,1.455
93.751882,0,-8.23,1.496
93.761542,0,-8.514,1.526
93.771202,0.039,-8.598,1.551
93.780862,0.157,-8.728,1.608
93.790522,0.314,-8.851,1.626
93.800182,0.51,-9.107,1.501
93.809842,0.588,-9.255,1.435
93.819502,0.706,-9.126,1.378
93.829152,0.745,-8.866,1.265
93.838802,0.824,-8.678,1.099
93.848452,0.745,-8.703,1.015
93.858102,0.667,-8.598,0.874
93.867752,0.588,-8.417,0.746
93.877402,0.667,-9.36,0.222
93.887052,0.549,-10.396,-0.001
93.896702,0.275,-10.314,0.213
93.906352,0.196,-9.58,0.342
93.916002,0.314,-9.932,0.081
93.925652,0.118,-11.659,-0.064
93.935302,-0.275,-12.384,0.206
93.944952,-0.745,-12.155,0.486
93.954602,-0.863,-11.768,0.554
93.964233,-1.177,-11.571,0.788
93.973864,-1.53,-11.998,0.952
93.983495,-1.608,-12.854,0.84
93.993126,-1.687,-13.77,0.838
94.002757,-1.804,-14.159,1.009
94.012388,-2.001,-13.859,1.34
94.022019,-2.079,-13.197,1.656
94.03165,-2.197,-12.786,1.808
94.041281,-2.354,-12.852,1.956
94.050912,-2.354,-12.827,2.04
94.060543,-2.236,-12.757,2.092
94.070174,-2.157,-12.732,2.176
94.079805,-2.118,-12.777,2.208
94.089436,-2.118,-12.752,2.292
94.099073,-2.157,-12.559,2.326
94.10871,-2.118,-12.313,2.29
94.118347,-2.157,-11.907,2.242
94.127984,-2.118,-11.532,2.149
94.137621,-2.001,-11.111,2.024
94.147258,-1.844,-10.684,1.86
94.156895,-1.726,-10.25,1.658
94.166532,-1.648,-9.778,1.462
94.176169,-1.53,-9.305,1.267
94.185806,-1.491,-8.832,1.072
94.195443,-1.412,-8.328,0.921
94.20508,-1.334,-7.946,0.79
94.214717,-1.255,-7.603,0.651
94.224358,-1.216,-7.415,0.485
94.233999,-1.138,-7.355,0.376
94.24364,-1.138,-7.296,0.267
94.253281,-1.098,-7.212,0.242
94.262922,-1.098,-7.044,0.192
94.272563,-1.138,-6.831,0.11
94.282204,-1.216,-6.547,0.08
94.291845,-1.216,-6.378,0.03
94.301486,-1.255,-6.449,-0.022
94.311127,-1.294,-6.635,-0.095
94.320768,-1.334,-6.835,-0.09
94.330409,-1.373,-7.067,-0.131
94.34005,-1.451,-7.292,-0.21
94.349691,-1.53,-7.46,-0.16
94.359326,-1.53,-7.653,-0.194
94.368961,-1.608,-7.815,-0.183
94.378596,-1.648,-7.912,-0.081
94.388231,-1.804,-7.849,0.01
94.397866,-1.883,-7.778,0.062
94.407501,-2.04,-8.01,0.022
94.417136,-2.04,-8.86,-0.128
94.426771,-2.197,-9.403,0.015
94.436406,-2.079,-10.285,-0.18
94.446041,-2.157,-10.421,-0.085
94.455676,-2.197,-10.698,-0.094
94.465311,-2.157,-11.162,-0.176
94.474946,-2.197,-11.582,-0.051
94.484581,-2.079,-12.048,0.106
94.494234,-1.961,-12.191,0.24
94.503887,-1.844,-12.548,0.456
94.51354,-1.765,-12.768,0.577
94.523193,-1.569,-12.886,0.795
94.532846,-1.451,-12.632,1.158
94.542499,-1.216,-12.568,1.249
94.552152,-1.02,-12.743,1.338
94.561805,-0.706,-13.407,1.261
94.571458,-0.51,-14.161,1.247
94.581111,-0.275,-14.22,1.356
94.590764,-0.118,-14.041,1.468
94.600417,-0.039,-13.609,1.504
94.61007,-0.039,-13.197,1.656
94.61972,0,-12.773,1.731
94.62937,0,-12.186,1.795
94.63902,0,-11.748,1.792
94.64867,0,-11.186,1.772
94.65832,0,-10.741,1.731
94.66797,0,-10.507,1.533
94.67762,-0.078,-10.28,1.374
94.68727,-0.118,-9.923,1.158
94.69692,-0.196,-9.419,1.008
94.70657,-0.392,-8.907,0.819
94.71622,-0.549,-8.364,0.676
94.72587,-0.745,-7.874,0.603
94.73552,-0.824,-7.396,0.608
94.74517,-0.981,-6.99,0.56
94.75484,-0.981,-6.597,0.589
94.76451,-0.981,-6.217,0.696
94.77418,-0.863,-6.144,0.51
94.78385,-0.785,-6.285,0.405
94.79352,-0.706,-6.51,0.326
94.80319,-0.51,-6.742,0.285
94.81286,-0.353,-6.883,0.18
94.82253,-0.235,-6.967,0.205
94.8322,-0.157,-6.967,0.205
94.84187,-0.118,-6.858,0.265
94.85154,-0.039,-6.781,0.278
94.86121,-0.039,-6.735,0.246
94.87088,0,-6.774,0.24
94.880591,0,-6.781,0.278
94.890302,0.078,-6.799,0.155
94.900013,0.157,-6.631,0.105
94.909724,0.196,-6.694,0.015
94.919435,0.353,-8.635,-0.726
94.929146,0.353,-10.587,-0.951
94.938857,0.078,-10.732,-0.578
94.948568,0,-9.753,-0.485
94.958279,0.118,-10.085,-0.862
94.96799,-0.157,-11.355,-0.887
94.977701,-0.588,-12.234,-0.644
94.987412,-1.059,-12.089,-0.339
94.997123,-1.059,-11.787,-0.246
95.006846,-1.216,-11.266,-0.035
95.016569,-1.373,-11.571,0.111
95.026292,-1.569,-12.332,0.136
95.036015,-1.608,-14.243,-0.321
95.045738,-1.804,-16.17,-0.461
95.055461,-2.314,-15.847,0.193
95.065184,-2.746,-14.434,0.761
95.074907,-3.06,-13.513,0.963
95.08463,-3.452,-13.645,1.259
95.094353,-3.844,-13.966,1.72
95.104076,-3.962,-13.981,2.036
95.113799,-3.923,-13.9,2.249
95.123522,-4.001,-13.818,2.463
95.133245,-4.158,-13.652,2.651
95.143005,-4.276,-13.202,2.81
95.152765,-4.276,-12.647,2.829
95.162525,-4.119,-12.15,2.717
95.172285,-3.923,-11.723,2.553
95.182045,-3.648,-11.243,2.319
95.191805,-3.413,-10.802,2.078
95.201565,-3.138,-10.271,1.774
95.211325,-2.824,-9.771,1.424
95.221085,-2.511,-9.226,1.042
95.230845,-2.197,-8.771,0.724
95.240605,-1.961,-8.285,0.451
95.250365,-1.726,-7.851,0.249
95.260125,-1.53,-7.353,0.137
95.269906,-1.373,-6.894,0.019
95.279687,-1.255,-6.467,-0.145
95.289468,-1.216,-6.131,-0.245
95.299249,-1.138,-5.974,-0.456
95.30903,-1.177,-5.954,-0.572
95.318811,-1.177,-6.094,-0.676
95.328592,-1.255,-6.326,-0.717
95.338373,-1.373,-6.583,-0.842
95.348154,-1.491,-6.731,-0.908
95.357935,-1.608,-6.801,-0.96
95.367716,-1.765,-6.858,-1.09
95.377497,-1.922,-6.974,-1.11
95.387278,-2.118,-6.974,-1.11
95.397059,-2.275,-6.942,-1.065
95.40683,-2.471,-6.974,-1.11
95.416601,-2.667,-7.09,-1.131
95.426372,-2.785,-7.244,-1.158
95.436143,-2.981,-7.349,-1.017
95.445914,-3.099,-7.401,-0.947
95.455685,-3.177,-7.447,-0.915
95.465456,-3.256,-7.794,-0.976
95.475227,-3.177,-8.471,-0.976
95.484998,-3.138,-9.283,-1.119
95.494769,-3.02,-10.185,-1.198
95.50454,-3.02,-10.707,-1.171
95.514311,-2.981,-11.114,-1.123
95.524082,-2.903,-11.725,-1.271
95.533853,-2.864,-12.396,-1.309
95.543644,-2.864,-12.887,-1.237
95.553435,-2.824,-13.041,-1.264
95.563226,-2.746,-13.087,-1.232
95.573017,-2.628,-13.016,-1.18
95.582808,-2.55,-12.875,-1.075
95.592599,-2.432,-12.759,-1.055
95.60239,-2.275,-12.637,-1.073
95.612181,-2.118,-12.693,-1.203
95.621972,-1.922,-12.873,-1.314
95.631763,-1.844,-13.027,-1.341
95.641554,-1.844,-12.848,-1.23
95.651345,-1.804,-12.443,-1.039
95.661136,-1.844,-11.994,-0.88
95.670934,-1.883,-11.719,-0.632
95.680732,-1.765,-11.584,-0.489
95.69053,-1.569,-11.425,-0.262
95.700328,-1.451,-11.155,-0.214
95.710126,-1.334,-10.853,-0.121
95.719924,-1.255,-10.55,-0.028
95.729722,-1.216,-10.273,-0.019
95.73952,-1.216,-9.887,0.049
95.749318,-1.255,-9.487,0.04
95.759116,-1.177,-9.126,0.024
95.768914,-1.138,-8.726,0.015
95.778712,-1.059,-8.333,0.044
95.78851,-0.824,-7.908,0.119
95.798308,-0.51,-7.56,0.181
95.808102,-0.275,-7.308,0.106
95.817896,-0.039,-7.076,0.146
95.82769,0.118,-6.985,0.083
95.837484,0.353,-6.926,-0.026
95.847278,0.51,-7.022,-0.163
95.857072,0.628,-7.201,-0.274
95.866866,0.628,-7.278,-0.288
95.87666,0.667,-7.226,-0.358
95.886454,0.628,-7.065,-0.369
95.896248,0.628,-6.865,-0.374
95.906042,0.628,-6.71,-0.347
95.915836,0.628,-6.717,-0.308
95.92563,0.706,-6.788,-0.36
95.935424,0.785,-6.942,-0.388
95.945185,0.863,-7.244,-0.481
95.954946,0.863,-7.522,-0.49
95.964707,0.824,-7.624,-0.587
95.974468,0.785,-7.676,-0.517
95.984229,0.628,-7.651,-0.433
95.99399,0.51,-7.562,-0.258
96.003751,0.392,-7.89,-0.435
96.013512,0.353,-9.478,-0.914
96.023273,0.157,-10.523,-0.86
96.033034,-0.118,-10.546,-0.505
96.042795,-0.118,-10.289,-0.38
96.052556,-0.039,-10.398,-0.439
96.062317,-0.235,-11.198,-0.421
96.072078,-0.392,-12.346,-0.464
96.081807,-0.549,-13.32,-0.357
96.091536,-0.431,-14.029,-0.403
96.101265,-0.392,-13.716,-0.148
96.110994,-0.314,-13.318,0.081
96.120723,-0.275,-13.23,0.256
96.130452,-0.353,-13.643,0.343
96.140181,-0.314,-14.809,0.177
96.14991,-0.392,-15.352,0.32
96.159639,-0.588,-14.718,0.791
96.169368,-0.588,-13.913,0.972
96.179097,-0.588,-13.475,0.97
96.188826,-0.706,-13.418,1.099
96.198555,-0.824,-13.15,1.386
96.208284,-0.785,-12.609,1.481
96.218002,-0.667,-12.118,1.408
96.22772,-0.51,-11.739,1.515
96.237438,-0.353,-11.48,1.401
96.247156,-0.314,-11.202,1.41
96.256874,-0.314,-10.905,1.304
96.266592,-0.235,-10.537,1.249
96.27631,-0.157,-10.116,1.124
96.286028,-0.157,-9.735,0.992
96.295746,-0.078,-9.462,0.801
96.305464,-0.078,-9.119,0.663
96.315182,-0.118,-8.744,0.569
96.3249,-0.118,-8.401,0.431
96.334618,-0.157,-8.064,0.331
96.34431,-0.275,-7.805,0.217
96.354002,-0.392,-7.528,0.226
96.363694,-0.51,-7.283,0.19
96.373386,-0.549,-7.062,0.069
96.383078,-0.706,-6.972,0.006
96.39277,-0.785,-6.926,-0.026
96.402462,-0.902,-6.919,-0.065
96.412154,-0.941,-6.81,-0.006
96.421846,-0.941,-6.726,-0.031
96.431538,-1.059,-6.726,-0.031
96.44123,-1.177,-6.817,0.033
96.450922,-1.255,-6.806,0.194
96.460614,-1.334,-6.665,0.299
96.470306,-1.412,-6.633,0.344
96.479977,-1.451,-6.64,0.383
96.489648,-1.451,-6.635,0.583
96.499319,-1.53,-6.944,0.528
96.50899,-1.53,-8.36,0.199
96.518661,-1.726,-8.937,0.535
96.528332,-2.001,-8.746,0.808
96.538003,-2.04,-8.719,0.653
96.547674,-2.079,-9.46,0.563
96.557345,-2.04,-10.943,0.62
96.567016,-2.001,-12.048,0.783
96.576687,-1.726,-12.58,1.088
96.586358,-1.451,-12.807,1.247
96.596029,-1.294,-12.925,1.465
96.6057,-1.216,-12.729,1.938
96.615375,-1.294,-12.436,2.308
96.62505,-0.941,-12.625,2.474
96.634725,-0.667,-13.052,2.638
96.6444,-0.392,-13.615,2.897
96.654075,-0.157,-14.063,3.176
96.66375,0.078,-14.163,3.517
96.673425,0.157,-13.979,3.829
96.6831,0.157,-13.872,4.126
96.692775,0.118,-13.752,4.347
96.70245,0.078,-13.565,4.419
96.712125,0.118,-13.165,4.41
96.7218,0.118,-12.752,4.324
96.731475,0.157,-12.318,4.121
96.741141,0.118,-11.961,3.906
96.750807,0.157,-11.475,3.633
96.760473,0.196,-10.886,3.458
96.770139,0.196,-10.246,3.212
96.779805,0.196,-9.566,2.974
96.789471,0.157,-8.855,2.78
96.799137,0.118,-8.105,2.594
96.808803,0.078,-7.362,2.446
96.818469,0.039,-6.671,2.369
96.828135,0.078,-6.167,2.219
96.837801,0.078,-5.869,2.112
96.847467,0.157,-5.681,1.946
96.857133,0.235,-5.833,1.68
96.866799,0.275,-6.09,1.555
96.876456,0.275,-6.308,1.437
96.886113,0.314,-6.417,1.378
96.89577,0.392,-6.417,1.378
96.905427,0.431,-6.512,1.242
96.915084,0.353,-6.558,1.273
96.924741,0.353,-6.551,1.235
96.934398,0.314,-6.699,1.169
96.944055,0.314,-7.04,1.069
96.953712,0.392,-7.433,1.039
96.963369,0.392,-7.658,0.96
96.973026,0.392,-7.742,0.985
96.982683,0.275,-7.728,0.908
96.99234,0.235,-8.821,0.556
97.001997,0.078,-9.512,0.633
97.011631,-0.275,-9.373,0.976
97.021265,-0.157,-9.405,0.931
97.030899,-0.157,-9.521,0.91
97.040533,-0.353,-9.969,1.19
97.050167,-0.51,-10.827,1.317
97.059801,-0.785,-11.398,1.615
97.069435,-0.981,-11.968,1.913
97.079069,-1.216,-12.152,2.279
97.088703,-1.373,-12.129,2.601
97.098337,-1.608,-12.093,2.847
97.107971,-1.844,-12.218,3.103
97.117605,-2.079,-12.697,3.338
97.127239,-2.354,-13.247,3.519
97.136873,-2.589,-14.279,3.497
97.14652,-2.824,-14.797,3.724
97.156167,-2.981,-14.62,4.074
97.165814,-3.02,-14.04,4.176
97.175461,-3.02,-13.538,4.265
97.185108,-2.981,-13.197,4.365
97.194755,-2.864,-12.902,4.496
97.204402,-2.667,-12.586,4.512
97.214049,-2.471,-12.34,4.476
97.223696,-2.354,-12.05,4.408
97.233343,-2.157,-11.745,4.262
97.24299,-2.04,-11.357,4.092
97.252637,-1.922,-10.961,3.883
97.262284,-1.844,-10.559,3.635
97.271921,-1.765,-10.143,3.31
97.281558,-1.648,-9.612,3.005
97.291195,-1.53,-8.996,2.676
97.300832,-1.491,-8.407,2.501
97.310469,-1.373,-7.785,2.133
97.320106,-1.334,-7.344,1.892
97.329743,-1.255,-6.833,1.703
97.33938,-1.177,-6.392,1.462
97.349017,-1.098,-6.081,1.278
97.358654,-1.098,-5.962,1.06
97.368291,-1.098,-6.09,0.878
97.377928,-1.098,-6.276,0.805
97.387565,-1.059,-6.494,0.687
97.397202,-1.059,-6.803,0.633
97.406853,-1.138,-6.978,0.721
97.416504,-1.255,-6.992,0.799
97.426155,-1.334,-6.896,0.935
97.435806,-1.412,-6.935,0.928
97.445457,-1.569,-6.994,1.037
97.455108,-1.648,-7.085,1.101
97.464759,-1.804,-7.13,1.133
97.47441,-1.883,-7.33,1.137
97.484061,-1.961,-7.537,1.18
97.493712,-1.961,-7.589,1.251
97.503363,-1.922,-8.264,1.012
97.513014,-1.883,-9.282,0.912
97.522665,-1.922,-9.903,1.042
97.532309,-1.804,-10.032,1.099
97.541953,-1.883,-10.373,0.999
97.551597,-2.04,-11.037,0.922
97.561241,-2.118,-11.882,0.972
97.570885,-2.079,-12.682,0.99
97.580529,-2.079,-12.979,1.097
97.590173,-1.922,-13.436,0.977
97.599817,-1.804,-13.682,1.013
97.609461,-1.687,-13.607,1.265
97.619105,-1.608,-13.191,1.617
97.628749,-1.53,-12.8,1.886
97.638393,-1.412,-12.557,2.088
97.648037,-1.255,-12.795,2.086
97.657681,-1.098,-13.072,2.076
97.667343,-0.863,-13.182,2.017
97.677005,-0.785,-13.129,1.947
97.686667,-0.706,-13.052,1.961
97.696329,-0.706,-12.866,2.033
97.705991,-0.667,-12.441,2.108
97.715653,-0.628,-11.932,2.158
97.725315,-0.588,-11.423,2.208
97.734977,-0.471,-10.991,2.244
97.744639,-0.353,-10.7,2.176
97.754301,-0.275,-10.364,2.076
97.763963,-0.157,-10.059,1.931
97.773625,-0.118,-9.703,1.715
97.783287,-0.118,-9.3,1.467
97.792964,0,-8.835,1.31
97.802641,-0.078,-8.246,1.135
97.812318,-0.078,-7.619,0.967
97.821995,-0.157,-7.083,0.862
97.831672,-0.196,-6.631,0.783
97.841349,-0.275,-6.192,0.78
97.851026,-0.235,-5.869,0.758
97.860703,-0.157,-5.567,0.851
97.87038,-0.118,-5.438,0.794
97.880057,0,-5.681,0.592
97.889734,0.039,-6.151,0.548
97.899411,0.157,-6.692,0.453
97.909088,0.235,-7.046,0.43
97.918765,0.314,-7.124,0.417
97.928465,0.275,-7.131,0.455
97.938165,0.275,-7.092,0.462
97.947865,0.235,-7.215,0.48
97.957565,0.157,-7.285,0.428
97.967265,0.078,-7.285,0.428
97.976965,0.039,-7.124,0.417
97.986665,0,-6.962,0.405
97.996365,0,-7.04,0.392
98.006065,0.078,-8.537,-0.151
98.015765,-0.039,-9.976,-0.126
98.025465,-0.314,-9.987,0.39
98.035165,-0.196,-9.973,0.313
98.044865,-0.118,-10.21,0.072
98.054569,-0.196,-11.473,0.008
98.064273,-0.275,-12.739,0.184
98.073977,-0.431,-12.936,0.627
98.083681,-0.353,-12.7,0.868
98.093385,-0.196,-12.495,1.063
98.103089,-0.235,-12.698,1.306
98.112793,-0.235,-13.55,1.395
98.122497,-0.235,-14.35,1.413
98.132201,-0.314,-15.181,1.386
98.141905,-0.471,-15.736,1.368
98.151609,-0.745,-15.538,1.602
98.161313,-0.981,-14.94,1.827
98.171017,-1.255,-14.393,1.883
98.180721,-1.608,-14.213,1.995
98.190417,-1.804,-13.943,2.042
98.200113,-1.844,-13.55,2.072
98.209809,-1.883,-13.125,2.147
98.219505,-1.961,-12.661,2.229
98.229201,-2.001,-12.338,2.206
98.238897,-2.079,-11.964,2.113
98.248593,-2.197,-11.505,1.994
98.258289,-2.197,-11.014,1.922
98.267985,-2.157,-10.432,1.785
98.277681,-2.04,-9.998,1.583
98.287377,-2.001,-9.571,1.419
98.297073,-1.844,-9.214,1.203
98.306769,-1.765,-8.787,1.04
98.316465,-1.608,-8.405,0.908
98.326194,-1.491,-8.094,0.724
98.335923,-1.451,-7.86,0.526
98.345652,-1.334,-7.608,0.451
98.355381,-1.216,-7.355,0.376
98.36511,-1.177,-7.033,0.353
98.374839,-1.098,-6.781,0.278
98.384568,-1.098,-6.574,0.235
98.394297,-1.098,-6.406,0.185
98.404026,-1.177,-6.36,0.153
98.413755,-1.216,-6.508,0.087
98.423484,-1.334,-6.772,0.001
98.433213,-1.451,-7.017,0.037
98.442942,-1.608,-7.178,0.049
98.452681,-1.844,-7.276,0.151
98.46242,-2.001,-7.251,0.235
98.472159,-2.079,-7.187,0.326
98.481898,-2.157,-7.149,0.333
98.491637,-2.236,-7.24,0.396
98.501376,-2.354,-7.246,0.435
98.511115,-2.432,-7.376,0.492
98.520854,-2.432,-7.46,0.517
98.530593,-2.471,-7.583,0.535
98.540332,-2.432,-8.38,0.315
98.550071,-2.354,-9.437,0.208
98.55981,-2.393,-10.082,0.254
98.569549,-2.393,-10.225,0.388
98.579288,-2.393,-10.296,0.335
98.589036,-2.393,-10.605,0.281
98.598784,-2.354,-11.346,0.19
98.608532,-2.275,-12.139,0.17
98.61828,-2.157,-12.623,0.204
98.628028,-2.118,-12.836,0.286
98.637776,-2.001,-12.805,0.331
98.647524,-2.079,-12.618,0.404
98.657272,-2.001,-12.618,0.404
98.66702,-1.961,-12.618,0.404
98.676768,-1.883,-12.695,0.39
98.686516,-1.804,-12.998,0.297
98.696264,-1.922,-13.166,0.347
98.706012,-2.157,-12.916,0.511
98.71576,-2.354,-12.62,0.643
98.7255,-2.393,-12.261,0.865
98.73524,-2.354,-12.102,1.092
98.74498,-2.275,-11.957,1.397
98.75472,-2.314,-11.805,1.663
98.76446,-2.236,-11.53,1.91
98.7742,-2.157,-11.143,1.978
98.78394,-1.961,-10.827,1.994
98.79368,-1.765,-10.582,1.958
98.80342,-1.608,-10.291,1.89
98.81316,-1.373,-9.93,1.874
98.8229,-1.138,-9.523,1.826
98.83264,-0.745,-9.207,1.842
98.84238,-0.392,-8.891,1.858
98.85212,-0.196,-8.53,1.842
98.861876,0,-8.137,1.871
98.871632,0.078,-7.776,1.855
98.881388,0.157,-7.414,1.839
98.891144,0.235,-7.176,1.842
98.9009,0.353,-7.124,1.771
98.910656,0.549,-7.258,1.628
98.920412,0.667,-7.36,1.53
98.930168,0.785,-7.269,1.467
98.939924,0.981,-7.217,1.396
98.94968,1.138,-7.164,1.326
98.959436,1.255,-7.164,1.326
98.969192,1.294,-7.119,1.294
98.978948,1.373,-7.183,1.203
98.988706,1.373,-7.183,1.203
98.998464,1.412,-7.292,1.144
99.008222,1.373,-7.446,1.117
99.01798,1.255,-7.542,0.98
99.027738,1.216,-7.644,0.883
99.037496,1.177,-7.714,0.83
99.047254,1.098,-7.708,0.792
99.057012,0.941,-7.599,0.851
99.06677,0.824,-8.196,0.626
99.076528,0.628,-9.485,0.479
99.086286,0.196,-9.9,0.804
99.096044,0.039,-9.941,1.035
99.105802,0.118,-9.735,0.992
99.11556,0.196,-10.205,0.949
99.125311,0.118,-11.166,0.979
99.135062,-0.039,-12.109,1.131
99.144813,-0.196,-12.768,1.254
99.154564,-0.196,-13.368,1.268
99.164315,-0.314,-13.518,1.44
99.174066,-0.51,-13.372,1.745
99.183817,-0.706,-13.368,1.945
99.193568,-0.941,-13.216,2.211
99.203319,-1.059,-13.057,2.438
99.21307,-1.098,-13.436,2.331
99.222821,-1.098,-14.184,2.279
99.232572,-1.255,-14.54,2.495
99.242323,-1.373,-14.361,2.606
99.252074,-1.216,-13.884,2.611
99.261794,-1.177,-13.393,2.538
99.271514,-1.177,-13.066,2.715
99.281234,-1.177,-12.679,2.783
99.290954,-1.098,-12.241,2.781
99.300674,-0.941,-11.718,2.753
99.310394,-0.824,-11.195,2.726
99.320114,-0.745,-10.627,2.667
99.329834,-0.706,-10.046,2.531
99.339554,-0.745,-9.573,2.335
99.349274,-0.745,-9.216,2.119
99.358994,-0.745,-9.014,1.876
99.368714,-0.706,-8.773,1.64
99.378434,-0.745,-8.469,1.494
99.388154,-0.745,-8.119,1.317
99.397879,-0.785,-7.737,1.185
99.407604,-0.785,-7.355,1.053
99.417329,-0.824,-7.012,0.914
99.427054,-0.902,-6.715,0.808
99.436779,-0.941,-6.462,0.733
99.446504,-0.902,-6.287,0.644
99.456229,-0.863,-6.383,0.508
99.465954,-0.745,-6.594,0.351
99.475679,-0.706,-6.865,0.303
99.485404,-0.706,-6.981,0.283
99.495129,-0.549,-7.019,0.276
99.504854,-0.431,-7.096,0.262
99.514579,-0.431,-7.008,0.437
99.524299,-0.353,-6.976,0.483
99.534019,-0.353,-6.983,0.521
99.543739,-0.431,-6.919,0.612
99.553459,-0.471,-6.915,0.812
99.563179,-0.471,-6.915,0.812
99.572899,-0.471,-6.955,1.044
99.582619,-0.353,-8.146,0.794
99.592339,-0.51,-9.169,1.172
99.602059,-0.628,-9.887,1.403
99.611779,-0.549,-10.3,1.49
99.621499,-0.431,-10.732,1.454
99.631219,-0.392,-11.609,1.458
99.640939,-0.275,-12.545,1.572
99.650659,-0.118,-13.372,1.745
99.660316,0.118,-13.613,1.981
99.669973,0.392,-13.595,2.104
99.67963,0.588,-13.197,2.333
99.689287,0.785,-12.909,2.504
99.698944,0.902,-12.672,2.744
99.708601,1.098,-12.711,2.738
99.718258,1.412,-13.118,2.785
99.727915,1.53,-13.57,2.865
99.737572,1.687,-13.559,3.026
99.747229,1.844,-13.27,3.197
99.756886,1.961,-12.981,3.367
99.766543,1.922,-12.725,3.492
99.7762,1.844,-12.313,3.644
99.785857,1.883,-11.895,3.758
99.795514,1.922,-11.586,3.812
99.805108,1.961,-11.386,3.808
99.814702,1.961,-11.295,3.744
99.824296,1.922,-11.113,3.617
99.83389,1.883,-10.873,3.38
99.843484,1.804,-10.516,3.165
99.853078,1.687,-10.011,3.015
99.862672,1.491,-9.378,2.808
99.872266,1.334,-8.744,2.601
99.88186,1.216,-8.071,2.401
99.891454,1.059,-7.56,2.212
99.901048,0.902,-7.087,2.017
99.910642,0.824,-6.705,1.885
99.920236,0.706,-6.317,1.714
99.92983,0.706,-6.012,1.569
99.9394,0.667,-5.862,1.396
99.94897,0.785,-5.899,1.151
99.95854,0.745,-6.226,0.973
99.96811,0.745,-6.535,0.919
99.97768,0.824,-6.619,0.944
99.98725,0.902,-6.574,0.912
99.99682,0.902,-6.535,0.919
100.00639,0.863,-6.587,0.989
100.01596,0.863,-6.633,1.021
100.02553,0.824,-6.703,0.969
100.0351,0.785,-6.826,0.987
100.04467,0.824,-6.865,0.98
100.05424,0.902,-6.955,1.044
100.063779,1.059,-7.29,0.905
100.073318,1.098,-7.549,1.019
100.082857,1.216,-8.548,1.042
100.092396,1.138,-9.182,1.249
100.101935,1.098,-9.803,1.378
100.111474,1.059,-10.114,1.563
100.121013,1.059,-10.096,1.685
100.130552,1.059,-10.496,1.694
100.140091,0.941,-11.264,1.758
100.14963,0.706,-11.75,2.031
100.159169,0.51,-11.907,2.242
100.168708,0.431,-12.057,2.415
100.178247,0.235,-11.866,2.688
100.187786,0.157,-11.816,2.856
100.197314,-0.078,-11.818,3.094
100.206842,-0.235,-11.968,3.267
100.21637,-0.235,-13.134,3.101
100.225898,-0.471,-14.199,3.272
100.235426,-0.902,-14.217,3.826
100.244954,-0.941,-13.852,4.01
100.254482,-0.863,-13.477,3.917
100.26401,-1.098,-13.343,4.06
100.273538,-1.373,-13.247,4.197
100.283066,-1.412,-13.054,4.231
100.292594,-1.412,-12.834,4.11
100.302122,-1.451,-12.543,4.042
100.31165,-1.569,-12.2,3.903
100.321178,-1.608,-11.741,3.785
100.330691,-1.726,-11.25,3.712
100.340204,-1.726,-10.714,3.608
100.349717,-1.648,-10.248,3.451
100.35923,-1.608,-9.762,3.178
100.368743,-1.53,-9.359,2.93
100.378256,-1.451,-8.971,2.76
100.387769,-1.255,-8.491,2.526
100.397282,-1.098,-8.057,2.323
100.406795,-0.941,-7.578,2.089
100.416308,-0.785,-7.151,1.926
100.425821,-0.706,-6.833,1.703
100.435334,-0.588,-6.515,1.48
100.444847,-0.471,-6.39,1.223
100.45436,-0.431,-6.31,0.998
100.463889,-0.431,-6.353,0.792
100.473418,-0.431,-6.378,0.708
100.482947,-0.471,-6.358,0.592
100.492476,-0.549,-6.274,0.567
100.502005,-0.628,-6.119,0.594
100.511534,-0.706,-6.081,0.601
100.521063,-0.824,-6.094,0.678
100.530592,-1.02,-6.199,0.819
100.540121,-1.059,-6.317,1.037
100.54965,-1.138,-6.474,1.248
100.559179,-1.177,-6.637,1.498
100.568708,-1.138,-7.339,1.414
100.578237,-1.059,-8.38,1.669
100.587789,-1.098,-9.2,1.803
100.597341,-1.098,-10.073,2.008
100.606893,-1.177,-10.661,2.183
100.616445,-1.334,-11.18,2.41
100.625997,-1.334,-11.695,2.399
100.635549,-1.294,-12.129,2.601
100.645101,-1.216,-12.395,2.754
100.654653,-1.098,-12.429,2.947
100.664205,-0.941,-12.52,3.01
100.673757,-0.824,-12.277,3.213
100.683309,-0.549,-12.157,3.433
100.692861,-0.235,-12.37,3.515
100.702413,0.039,-12.681,3.699
100.711965,0.314,-13.063,3.831
100.721528,0.588,-13.284,3.951
100.731091,0.706,-13.145,4.294
100.740654,0.745,-12.94,4.49
100.750217,0.745,-12.968,4.644
100.75978,0.745,-13.04,4.831
100.769343,0.667,-12.913,5.012
100.778906,0.628,-12.52,5.042
100.788469,0.667,-12.081,5.039
100.798032,0.745,-11.552,4.973
100.807595,0.706,-11.079,4.778
100.817158,0.667,-10.716,4.523
100.826721,0.628,-10.3,4.198
100.836284,0.549,-9.775,3.933
100.845847,0.431,-9.275,3.582
100.855464,0.275,-8.698,3.246
100.865081,0.157,-8.194,3.096
100.874698,0.039,-7.721,2.901
100.884315,-0.039,-7.255,2.744
100.893932,-0.118,-6.803,2.664
100.903549,-0.196,-6.344,2.546
100.913166,-0.235,-5.93,2.459
100.922783,-0.235,-5.569,2.444
100.9324,-0.157,-5.246,2.421
100.942017,-0.078,-5.187,2.312
100.951634,0,-5.36,2.162
100.961251,0.039,-5.74,2.055
100.970868,0.078,-6.08,1.955
100.980501,0.235,-6.415,1.816
100.990134,0.275,-6.601,1.744
100.999767,0.275,-6.658,1.614
101.0094,0.314,-6.658,1.614
101.019033,0.314,-6.651,1.576
101.028666,0.314,-6.644,1.537
101.038299,0.353,-6.567,1.551
101.047932,0.431,-6.676,1.492
101.057565,0.588,-8.296,0.967
101.067198,0.353,-9.485,1.156
101.076831,0.196,-9.489,1.633
101.086464,0.431,-9.05,1.631
101.096097,0.785,-9.571,1.419
101.10573,0.588,-10.682,1.622
101.115363,0.196,-11.614,1.935
101.125038,-0.078,-12.132,2.163
101.134713,-0.157,-12.593,2.52
101.144388,-0.314,-12.763,2.808
101.154063,-0.549,-13.106,2.947
101.163738,-0.941,-13.638,3.251
101.173413,-1.373,-14.292,3.574
101.183088,-1.883,-14.972,3.813
101.192763,-2.314,-15.451,4.047
101.202438,-2.864,-15.249,4.481
101.212113,-3.256,-14.531,4.926
101.221788,-3.57,-13.926,5.112
101.231463,-3.883,-13.69,5.353
101.241138,-4.236,-13.531,5.58
101.250835,-4.315,-13.222,5.635
101.260532,-4.393,-12.963,5.521
101.270229,-4.393,-12.704,5.408
101.279926,-4.393,-12.372,5.108
101.289623,-4.276,-11.84,4.803
101.29932,-4.158,-11.172,4.403
101.309017,-3.883,-10.498,3.964
101.318714,-3.57,-9.771,3.455
101.328411,-3.217,-9.043,2.946
101.338108,-2.864,-8.446,2.494
101.347805,-2.55,-7.823,2.126
101.357502,-2.314,-7.278,1.744
101.367199,-2.079,-6.824,1.426
101.376896,-1.883,-6.376,1.146
101.386622,-1.687,-6.033,1.007
101.396348,-1.569,-5.728,0.862
101.406074,-1.491,-5.463,0.71
101.4158,-1.451,-5.319,0.576
101.425526,-1.491,-5.299,0.46
101.435252,-1.53,-5.324,0.376
101.444978,-1.53,-5.285,0.382
101.454704,-1.569,-5.394,0.323
101.46443,-1.608,-5.542,0.258
101.474156,-1.687,-5.858,0.242
101.483882,-1.726,-6.219,0.258
101.493608,-1.804,-6.626,0.305
101.503334,-2.001,-6.878,0.38
101.51306,-2.157,-7.092,0.462
101.522836,-2.275,-7.228,0.558
101.532612,-2.393,-7.34,0.737
101.542388,-2.471,-7.405,0.885
101.552164,-2.511,-7.792,0.817
101.56194,-2.393,-8.989,0.606
101.571716,-2.393,-9.771,0.747
101.581492,-2.432,-10.191,0.872
101.591268,-2.471,-10.191,0.872
101.601044,-2.55,-10.719,0.699
101.61082,-2.589,-11.673,0.69
101.620596,-2.628,-12.357,0.729
101.630372,-2.589,-12.764,0.777
101.640148,-2.432,-13.034,0.729
101.649943,-2.314,-13.375,0.629
101.659738,-2.275,-13.511,0.724
101.669533,-2.275,-13.075,0.961
101.679328,-2.118,-12.65,1.036
101.689123,-1.961,-12.598,0.965
101.698918,-1.883,-12.836,0.963
101.708713,-1.648,-13.395,0.745
101.718508,-1.53,-13.852,0.625
101.728303,-1.412,-13.782,0.677
101.738098,-1.373,-13.37,0.829
101.747893,-1.451,-12.92,0.988
101.757688,-1.53,-12.548,1.133
101.767483,-1.53,-12.22,1.311
101.777278,-1.53,-11.88,1.411
101.787107,-1.373,-11.623,1.535
101.796936,-1.216,-11.3,1.513
101.806765,-1.059,-10.984,1.529
101.816594,-0.941,-10.571,1.442
101.826423,-0.745,-10.105,1.285
101.836252,-0.628,-9.716,1.115
101.846081,-0.549,-9.269,0.835
101.85591,-0.471,-8.751,0.608
101.865739,-0.392,-8.162,0.433
101.875568,-0.353,-7.574,0.258
101.885397,-0.353,-7.037,0.153
101.895226,-0.353,-6.547,0.08
101.905055,-0.353,-6.063,0.046
101.914884,-0.314,-5.631,0.083
101.924713,-0.275,-5.276,0.105
101.934534,-0.196,-5.238,0.112
101.944355,-0.118,-5.481,-0.09
101.954176,-0.039,-5.983,-0.179
101.963997,-0.039,-6.563,-0.281
101.973818,-0.039,-6.865,-0.374
101.983639,0,-6.91,-0.342
101.99346,-0.039,-6.801,-0.283
102.003281,-0.118,-6.64,-0.294
102.013102,-0.157,-6.601,-0.288
102.022923,-0.157,-6.531,-0.235
102.032744,-0.235,-6.415,-0.215
102.042565,-0.314,-7.122,-0.499
102.052386,-0.314,-8.667,-0.771
102.062207,-0.51,-9.512,-0.721
102.072034,-0.785,-9.687,-0.633
102.081861,-0.706,-9.589,-0.735
102.091688,-0.706,-10.078,-0.901
102.101515,-0.863,-11.25,-1.028
102.111342,-1.216,-11.948,-0.912
102.121169,-1.608,-12.118,-0.623
102.130996,-1.844,-12.448,-0.562
102.140823,-2.118,-12.527,-0.337
102.15065,-2.354,-12.446,-0.123
102.160477,-2.55,-12.596,0.049
102.170304,-2.707,-13.009,0.136
102.180131,-2.824,-13.809,0.154
102.189958,-3.02,-14.486,0.154
102.19976,-3.256,-14.957,0.111
102.209562,-3.373,-14.963,0.15
102.219364,-3.491,-14.372,0.413
102.229166,-3.53,-13.729,0.606
102.238968,-3.57,-13.009,0.813
102.24877,-3.53,-12.411,1.038
102.258572,-3.373,-12.182,1.317
102.268374,-3.256,-12.107,1.57
102.278176,-3.138,-12.064,1.776
102.287978,-3.02,-12.064,1.776
102.29778,-2.903,-12.043,1.66
102.307582,-2.824,-11.886,1.449
102.317384,-2.746,-11.561,1.188
102.327186,-2.628,-11.075,0.915
102.336979,-2.471,-10.564,0.726
102.346772,-2.393,-9.828,0.617
102.356565,-2.236,-9.096,0.308
102.366358,-2.157,-8.501,0.094
102.376151,-2.04,-8.028,-0.101
102.385944,-1.922,-7.601,-0.265
102.395737,-1.922,-7.187,-0.351
102.40553,-1.922,-6.865,-0.374
102.415323,-1.922,-6.742,-0.392
102.425116,-1.883,-6.833,-0.329
102.434909,-1.922,-6.962,-0.272
102.444702,-1.922,-7.169,-0.229
102.454495,-1.961,-7.331,-0.217
102.464253,-1.961,-7.531,-0.213
102.474011,-2.04,-7.762,-0.253
102.483769,-2.157,-8.04,-0.262
102.493527,-2.236,-8.046,-0.224
102.503285,-2.393,-8.046,-0.224
102.513043,-2.432,-8.085,-0.231
102.522801,-2.471,-8.124,-0.237
102.532559,-2.511,-8.078,-0.269
102.542317,-2.471,-8.008,-0.217
102.552075,-2.393,-7.994,-0.294
102.561833,-2.275,-8.103,-0.353
102.571591,-2.236,-8.283,-0.465
102.581349,-2.197,-8.515,-0.506
102.591107,-2.197,-8.644,-0.449
102.600864,-2.157,-8.721,-0.462
102.610621,-2.157,-8.755,-0.269
102.620378,-2.157,-8.692,-0.178
102.630135,-2.118,-8.66,-0.133
102.639892,-2.001,-8.694,0.06
102.649649,-1.922,-8.603,-0.003
102.659406,-1.883,-8.958,-0.026
102.669163,-1.451,-11.984,-1.157
102.67892,-1.412,-12.871,-0.875
102.688677,-1.726,-11.053,-0.117
102.698434,-1.177,-11.687,-0.587
102.708191,-0.863,-12.75,-0.655
102.717948,-1.569,-12.771,0.138
102.727677,-2.001,-12.85,0.363
102.737406,-1.922,-13.373,0.39
102.747135,-1.961,-13.475,0.97
102.756864,-2.04,-13.62,1.343
102.766593,-2.001,-13.831,1.863
102.776322,-2.001,-13.745,2.277
102.786051,-1.961,-13.813,2.663
102.79578,-1.922,-13.938,2.92
102.805509,-1.765,-14.07,3.215
102.815238,-1.569,-13.97,3.551
102.824967,-1.412,-13.729,3.992
102.834696,-1.216,-13.52,4.387
102.844425,-1.138,-13.277,4.59
102.854154,-1.02,-12.949,4.767
102.863843,-0.824,-12.568,4.635
102.873532,-0.706,-12.018,4.453
102.883221,-0.628,-11.5,4.226
102.89291,-0.628,-10.891,3.935
102.902599,-0.667,-10.223,3.535
102.912288,-0.785,-9.523,3.18
102.921977,-0.902,-8.978,2.798
102.931666,-1.059,-8.226,2.373
102.941355,-1.177,-7.726,2.023
102.951044,-1.334,-7.362,1.769
102.960733,-1.608,-7.058,1.623
102.970422,-1.844,-6.708,1.446
102.980111,-1.961,-6.467,1.21
102.9898,-2.001,-6.517,1.042
102.999449,-2.04,-6.574,0.912
103.009098,-2.04,-6.658,0.937
103.018747,-2.001,-6.806,0.871
103.028396,-1.922,-7.065,0.985
103.038045,-1.804,-7.349,1.014
103.047694,-1.648,-7.58,0.974
103.057343,-1.608,-7.883,0.88
103.066992,-1.491,-8.135,0.956
103.076641,-1.491,-8.398,0.869
103.08629,-1.53,-8.651,0.944
103.095939,-1.53,-8.721,0.892
103.105588,-1.53,-8.928,0.935
103.115237,-1.451,-9.103,1.024
103.124886,-1.334,-9.285,1.151
103.134525,-1.294,-9.625,1.051
103.144164,-1.216,-10.071,1.092
103.153803,-1.216,-10.323,1.167
103.163442,-1.255,-10.287,1.413
103.173081,-1.373,-10.216,1.465
103.18272,-1.53,-10.489,1.656
103.192359,-1.765,-10.927,1.658
103.201998,-2.04,-11.418,1.731
103.211637,-2.236,-11.857,1.733
103.221276,-2.354,-12.827,1.363
103.230915,-2.55,-13.132,1.508
103.240554,-2.707,-13.116,1.87
103.250193,-2.746,-12.975,1.974
103.259835,-3.02,-12.852,1.956
103.269477,-3.256,-12.229,2.265
103.279119,-3.295,-11.284,2.551
103.288761,-3.256,-10.371,2.792
103.298403,-3.334,-9.284,3.183
103.308045,-3.373,-8.948,3.083
103.317687,-3.491,-9.257,3.028
103.327329,-3.766,-9.278,3.144
103.336971,-4.04,-9.607,3.205
103.346613,-4.197,-10.111,3.355
103.356255,-4.59,-10.318,3.399
103.365897,-4.864,-10.455,3.494
103.375539,-5.021,-10.545,3.558
103.385181,-4.903,-10.65,3.699
103.394824,-4.707,-10.65,3.699
103.404467,-4.354,-10.579,3.751
103.41411,-4.001,-10.386,3.785
103.423753,-3.491,-10.225,3.774
103.433396,-3.256,-10.018,3.73
103.443039,-3.02,-9.78,3.733
103.452682,-2.903,-9.643,3.637
103.462325,-2.707,-9.714,3.585
103.471968,-2.55,-9.623,3.521
103.481611,-2.511,-9.205,3.635
103.491254,-2.432,-8.721,3.601
103.500897,-2.393,-8.487,3.403
103.51054,-2.393,-8.394,3.101
103.520183,-2.354,-8.353,2.869
103.529808,-2.354,-8.203,2.696
103.539433,-2.118,-7.976,2.537
103.549058,-1.883,-7.807,2.487
103.558683,-1.726,-7.503,2.342
103.568308,-1.569,-7.339,2.092
103.577933,-1.412,-6.778,2.071
103.587558,-1.294,-6.428,1.894
103.597183,-1.216,-6.194,1.696
103.606808,-1.216,-5.981,1.614
103.616433,-1.138,-5.735,1.578
103.626058,-1.138,-5.585,1.405
103.635683,-1.138,-6.01,1.33
103.645308,-1.098,-6.39,1.223
103.654933,-0.941,-6.885,1.096
103.664571,-0.824,-7.18,0.964
103.674209,-0.785,-7.394,1.046
103.683847,-0.785,-7.317,1.06
103.693485,-0.981,-7.13,1.133
103.703123,-1.138,-7.369,1.13
103.712761,-1.53,-7.726,1.346
103.722399,-1.961,-7.998,1.537
103.732037,-2.471,-8.187,1.703
103.741675,-3.177,-8.453,1.855
103.751313,-3.962,-9.028,1.953
103.760951,-4.629,-9.532,2.103
103.770589,-5.099,-9.939,2.151
103.780227,-5.374,-10.055,2.131
103.789879,-5.492,-9.893,2.119
103.799531,-5.413,-9.507,2.187
103.809183,-5.178,-9.094,2.101
103.818835,-4.668,-8.705,1.93
103.828487,-4.119,-8.323,1.799
103.838139,-3.53,-8.128,1.594
103.847791,-2.903,-7.996,1.299
103.857443,-2.314,-7.969,1.144
103.867095,-1.922,-8.244,0.896
103.876747,-1.53,-9.08,0.669
103.886399,-1.451,-9.416,0.769
103.896051,-1.334,-10.509,0.417
103.905703,-1.451,-10.941,0.381
103.915355,-1.687,-11.212,0.333
103.925001,-1.765,-11.384,0.183
103.934647,-1.844,-11.48,0.047
103.944293,-1.765,-11.705,-0.032
103.953939,-1.922,-11.607,-0.135
103.963585,-1.883,-11.709,-0.232
103.973231,-1.961,-11.632,-0.219
103.982877,-1.961,-11.491,-0.114
103.992523,-2.001,-11.196,0.017
104.002169,-1.922,-11.614,-0.096
104.011815,-1.844,-12.4,-0.155
104.021461,-1.687,-13.211,-0.298
104.031107,-1.491,-13.536,-0.037
104.040753,-1.412,-12.759,0.299
104.050399,-1.294,-12.168,0.563
104.060074,-1.334,-11.834,0.702
104.069749,-1.294,-11.836,0.94
104.079424,-1.138,-11.614,1.258
104.089099,-1.02,-11.23,1.565
104.098774,-0.981,-11.046,1.876
104.108449,-1.059,-10.693,2.137
104.118124,-1.098,-10.296,2.367
104.127799,-1.138,-9.877,2.48
104.137474,-1.177,-9.653,2.56
104.147149,-1.216,-9.453,2.555
104.156824,-1.177,-9.239,2.474
104.166499,-1.216,-8.998,2.237
104.176174,-1.177,-8.648,2.06
104.18587,-1.138,-8.298,1.883
104.195566,-1.059,-7.794,1.733
104.205262,-1.059,-7.314,1.498
104.214958,-1.138,-6.842,1.303
104.224654,-1.059,-6.376,1.146
104.23435,-0.824,-5.994,1.014
104.244046,-0.471,-5.703,0.946
104.253742,-0.196,-5.599,0.805
104.263438,-0.039,-5.849,0.642
104.273134,0,-6.274,0.567
104.28283,0,-6.628,0.544
104.292526,0,-6.937,0.49
104.302222,-0.078,-7.31,0.344
104.311918,-0.196,-7.612,0.251
104.321616,-0.275,-7.819,0.294
104.331314,-0.275,-8.044,0.215
104.341012,-0.471,-8.349,0.36
104.35071,-0.588,-8.737,0.531
104.360408,-0.628,-8.985,0.806
104.370106,-0.667,-8.955,1.09
104.379804,-0.628,-8.828,1.271
104.389502,-0.588,-9.939,0.797
104.3992,-0.628,-11.575,0.588
104.408898,-0.863,-11.989,0.674
104.418596,-1.255,-10.857,1.033
104.428294,-1.294,-10.673,0.667
104.437992,-1.491,-11.452,0.57
104.44769,-1.804,-11.964,0.758
104.457409,-2.197,-11.823,0.863
104.467128,-2.471,-11.623,0.858
104.476847,-2.55,-11.566,0.988
104.486566,-2.589,-11.78,1.07
104.496285,-2.589,-12.243,0.988
104.506004,-2.589,-13.273,0.727
104.515723,-2.589,-13.957,0.765
104.525442,-2.746,-13.65,1.059
104.535161,-2.707,-13.123,1.231
104.54488,-2.667,-12.859,1.317
104.554599,-2.628,-12.686,1.467
104.564318,-2.55,-12.261,1.542
104.574037,-2.432,-11.695,1.722
104.583748,-2.354,-11.182,1.972
104.593459,-2.393,-10.707,2.215
104.60317,-2.511,-10.432,2.462
104.612881,-2.55,-10.611,2.351
104.622592,-2.589,-11.18,2.41
104.632303,-2.628,-11.386,2.453
104.642014,-2.589,-11.07,2.469
104.651725,-2.511,-10.741,2.408
104.661436,-2.393,-10.437,2.262
104.671147,-2.236,-10.203,2.065
104.680858,-2.001,-9.909,1.758
104.690569,-1.765,-9.546,1.503
104.70028,-1.53,-9.053,1.192
104.709991,-1.334,-8.58,0.996
104.719712,-1.177,-8.128,0.917
104.729433,-1.098,-7.605,0.89
104.739154,-1.138,-7.115,0.817
104.748875,-1.138,-6.862,0.742
104.758596,-1.177,-6.746,0.762
104.768317,-1.216,-6.869,0.78
104.778038,-1.255,-7.28,0.628
104.787759,-1.334,-7.751,0.585
104.79748,-1.451,-8.06,0.531
104.807201,-1.569,-8.021,0.537
104.816922,-1.687,-7.751,0.585
104.826643,-1.844,-7.435,0.601
104.836364,-2.001,-7.042,0.63
104.846075,-2.118,-6.853,0.465
104.855786,-2.118,-7.021,0.515
104.865497,-2.079,-7.158,0.61
104.875208,-2.04,-7.203,0.642
104.884919,-2.079,-7.66,0.521
104.89463,-2.079,-8.305,0.567
104.904341,-2.157,-8.455,0.74
104.914052,-2.197,-9.151,0.617
104.923763,-2.275,-10.098,0.569
104.933474,-2.432,-10.609,0.758
104.943185,-2.511,-10.914,0.904
104.952896,-2.471,-11.307,0.874
104.962607,-2.432,-11.784,0.87
104.972318,-2.393,-11.798,0.947
104.982029,-2.275,-11.784,0.87
104.991749,-2.157,-11.777,0.831
105.001469,-2.118,-11.366,0.983
105.011189,-2.04,-11.032,1.122
105.020909,-2.04,-11.091,1.231
105.030629,-2.04,-12.193,1.156
105.040349,-2.079,-13.213,1.295
105.050069,-2.197,-13.52,1.679
105.059789,-2.314,-13.547,1.833
105.069509,-2.432,-13.645,1.936
105.079229,-2.589,-13.809,2.186
105.088949,-2.628,-13.804,2.386
105.098669,-2.511,-13.515,2.556
105.108389,-2.432,-13.22,2.688
105.118099,-2.314,-12.977,2.89
105.127809,-2.157,-12.552,2.965
105.137519,-1.922,-11.977,2.867
105.147229,-1.648,-11.589,2.697
105.156939,-1.255,-11.464,2.44
105.166649,-0.981,-11.03,2.238
105.176359,-0.785,-10.582,1.958
105.186069,-0.588,-9.825,1.733
105.195779,-0.431,-9.153,1.533
105.205489,-0.353,-8.487,1.371
105.215199,-0.314,-8.021,1.215
105.224909,-0.275,-7.601,1.09
105.234619,-0.314,-7.296,0.944
105.244329,-0.275,-6.967,0.883
105.25405,-0.314,-6.753,0.801
105.263771,-0.275,-6.508,0.764
105.273492,-0.235,-6.358,0.592
105.283213,-0.196,-6.492,0.449
105.292934,-0.235,-6.787,0.317
105.302655,-0.275,-7.128,0.217
105.312376,-0.235,-7.353,0.137
105.322097,-0.235,-7.333,0.021
105.331818,-0.275,-7.365,-0.024
105.341539,-0.314,-7.435,-0.076
105.35126,-0.314,-7.537,-0.174
105.360981,-0.353,-7.646,-0.233
105.370702,-0.353,-7.646,-0.233
105.380412,-0.353,-7.569,-0.219
105.390122,-0.392,-7.337,-0.178
105.399832,-0.431,-7.235,-0.081
105.409542,-0.549,-7.158,-0.067
105.419252,-0.628,-6.978,0.044
105.428962,-0.588,-7.376,-0.185
105.438672,-0.588,-8.471,-0.299
105.448382,-0.745,-9.169,-0.183
105.458092,-0.824,-9.723,-0.201
105.467802,-1.059,-9.726,0.038
105.477512,-1.216,-10.048,0.06
105.487222,-1.412,-10.925,0.065
105.496932,-1.608,-11.791,0.231
105.506642,-1.765,-12.239,0.511
105.516361,-1.804,-12.505,0.663
105.52608,-1.804,-12.725,0.783
105.535799,-2.001,-12.857,1.079
105.545518,-2.157,-13.104,1.354
105.555237,-2.354,-13.197,1.656
105.564956,-2.511,-13.547,1.833
105.574675,-2.628,-14.411,1.761
105.584394,-2.824,-14.997,1.697
105.594113,-3.099,-14.638,1.92
105.603832,-3.217,-13.82,2.024
105.613551,-3.373,-13.375,1.983
105.62327,-3.57,-13.227,2.049
105.632989,-3.648,-12.963,2.136
105.642699,-3.609,-12.563,2.126
105.652409,-3.648,-12.132,2.163
105.662119,-3.687,-11.816,2.179
105.671829,-3.648,-11.525,2.11
105.681539,-3.53,-11.248,2.119
105.691249,-3.413,-10.996,2.044
105.700959,-3.256,-10.743,1.969
105.710669,-3.06,-10.484,1.856
105.720379,-2.864,-10.187,1.749
105.730089,-2.707,-9.875,1.565
105.739799,-2.511,-9.532,1.426
105.749509,-2.314,-9.26,1.235
105.759219,-2.04,-8.973,0.967
105.768929,-1.804,-8.648,0.706
105.778653,-1.608,-8.201,0.426
105.788377,-1.491,-7.721,0.192
105.798101,-1.294,-7.308,0.106
105.807825,-1.216,-6.694,0.015
105.817549,-1.177,-6.19,-0.135
105.827273,-1.177,-5.769,-0.261
105.836997,-1.098,-5.395,-0.354
105.846721,-1.098,-5.22,-0.442
105.856445,-1.138,-5.301,-0.656
105.866169,-1.255,-5.61,-0.71
105.875893,-1.53,-5.849,-0.713
105.885617,-2.001,-5.965,-0.733
105.895341,-2.432,-6.056,-0.669
105.905079,-2.785,-6.101,-0.638
105.914817,-3.138,-6.135,-0.445
105.924555,-3.452,-6.176,-0.213
105.934293,-3.727,-6.301,0.044
105.944031,-3.766,-6.812,0.233
105.953769,-3.727,-7.601,0.412
105.963507,-3.648,-8.396,0.631
105.973245,-3.413,-8.96,0.89
105.982983,-3.06,-9.496,0.994
105.992721,-2.55,-10.753,0.892
106.002459,-2.157,-11.523,1.195
106.012197,-1.648,-11.905,1.326
106.021935,-1.138,-11.814,1.263
106.031673,-0.706,-11.993,1.151
106.0414,-0.431,-12.489,1.024
106.051127,-0.157,-12.829,0.924
106.060854,0.196,-12.72,0.983
106.070581,0.51,-12.121,0.97
106.080308,0.745,-11.752,0.915
106.090035,0.824,-11.302,1.074
106.099762,1.02,-10.789,1.324
106.109489,1.177,-10.396,1.353
106.119216,1.294,-10.603,1.397
106.128943,1.216,-11.832,1.14
106.13867,0.981,-13.636,0.981
106.148397,0.549,-14.284,1.265
106.158124,0.314,-14.086,1.499
106.167851,0.118,-13.893,1.533
106.177597,-0.314,-13.979,1.797
106.187343,-0.745,-13.834,2.102
106.197089,-0.824,-13.45,2.408
106.206835,-0.706,-12.961,2.574
106.216581,-0.667,-12.304,2.69
106.226327,-0.628,-11.589,2.697
106.236073,-0.549,-10.905,2.658
106.245819,-0.431,-10.393,2.469
106.255565,-0.392,-9.998,2.26
106.265311,-0.314,-9.609,2.09
106.275057,-0.275,-9.175,1.887
106.284803,-0.275,-8.671,1.737
106.294549,-0.353,-8.212,1.619
106.304304,-0.51,-7.826,1.687
106.314059,-0.628,-7.289,1.583
106.323814,-0.745,-6.824,1.426
106.333569,-0.549,-6.378,1.385
106.343324,-0.51,-6.119,1.271
106.353079,-0.471,-6.137,1.148
106.362834,-0.431,-6.465,0.971
106.372589,-0.392,-6.781,0.955
106.382344,-0.314,-7.012,0.914
106.392099,-0.196,-7.128,0.894
106.401854,-0.118,-7.451,0.917
106.411609,-0.039,-7.851,0.926
106.421364,-0.039,-8.187,1.026
106.431119,0.039,-8.485,1.133
106.440867,0.118,-8.678,1.099
106.450615,0.314,-8.916,1.097
106.460363,0.431,-8.923,1.135
106.470111,0.549,-8.896,0.981
106.479859,0.549,-8.644,0.906
106.489607,0.51,-8.283,0.89
106.499355,0.51,-9.11,0.385
106.509103,0.314,-9.78,0.347
106.518851,0.039,-9.857,0.333
106.528599,-0.157,-9.535,0.31
106.538347,-0.314,-9.385,0.138
106.548095,-0.588,-9.957,-0.003
106.557843,-0.824,-10.53,-0.144
106.567591,-1.059,-10.775,-0.108
106.577332,-1.255,-10.607,-0.158
106.587073,-1.373,-10.923,-0.173
106.596814,-1.53,-11.157,0.024
106.606555,-1.648,-11.275,0.242
106.616296,-1.687,-11.696,0.367
106.626037,-1.765,-12.091,0.577
106.635778,-1.883,-12.557,0.733
106.645519,-2.04,-13.323,0.559
106.65526,-2.157,-14.354,0.536
106.665001,-2.393,-14.377,0.89
106.674742,-2.471,-13.772,1.077
106.684483,-2.471,-13.032,1.168
106.694224,-2.471,-12.543,1.333
106.703965,-2.511,-12.268,1.581
106.713706,-2.471,-11.927,1.681
106.723447,-2.393,-11.709,1.799
106.733188,-2.354,-11.568,1.904
106.742929,-2.354,-11.395,2.054
106.752634,-2.432,-11.118,2.063
106.762339,-2.432,-10.905,1.981
106.772044,-2.432,-10.755,1.808
106.781749,-2.432,-10.612,1.674
106.791454,-2.432,-10.282,1.613
106.801159,-2.354,-9.809,1.417
106.810864,-2.236,-9.382,1.253
106.820569,-2.079,-8.878,1.103
106.830274,-2.001,-8.264,1.012
106.839979,-2.001,-7.767,0.901
106.849677,-1.922,-7.315,0.821
106.859375,-1.765,-6.933,0.689
106.869073,-1.648,-6.726,0.646
106.878771,-1.569,-6.642,0.621
106.888469,-1.53,-6.667,0.537
106.898167,-1.451,-6.931,0.451
106.907865,-1.412,-7.387,0.331
106.917563,-1.451,-7.69,0.237
106.927261,-1.53,-7.844,0.21
106.936959,-1.687,-8.024,0.099
106.946657,-1.804,-8.044,0.215
106.956355,-1.961,-7.96,0.19
106.966053,-2.04,-7.992,0.144
106.975738,-2.079,-7.851,0.249
106.985423,-2.079,-7.665,0.321
106.995108,-2.04,-7.562,0.419
107.004793,-1.804,-8.237,0.181
107.014478,-1.765,-8.633,0.39
107.024163,-1.53,-9.282,0.235
107.033848,-1.412,-9.696,0.322
107.043533,-1.294,-9.839,0.456
107.053218,-1.138,-9.969,0.513
107.062903,-1.059,-10.278,0.458
107.072588,-0.981,-10.819,0.363
107.082273,-0.981,-11.191,0.217
107.091958,-0.941,-11.3,0.158
107.101643,-0.785,-11.094,0.115
107.11132,-0.745,-10.535,0.333
107.120997,-0.745,-10.014,0.544
107.130674,-0.745,-9.944,0.597
107.140351,-0.706,-10.73,0.538
107.150028,-0.706,-12.166,0.324
107.159705,-0.706,-13.75,0.045
107.169382,-0.588,-14.782,0.023
107.179059,-0.392,-14.795,0.1
107.188736,-0.471,-13.72,0.329
107.198413,-0.628,-12.993,0.497
107.20809,-0.785,-12.627,0.681
107.217767,-0.785,-12.255,0.827
107.227444,-0.628,-11.752,0.915
107.237121,-0.51,-11.159,0.94
107.246767,-0.314,-10.682,0.945
107.256413,-0.196,-10.532,0.772
107.266059,-0.157,-10.364,0.722
107.275705,-0.196,-9.866,0.61
107.285351,-0.235,-9.267,0.597
107.294997,-0.314,-8.66,0.544
107.304643,-0.471,-8.067,0.569
107.314289,-0.628,-7.583,0.535
107.323935,-0.588,-7.26,0.512
107.333581,-0.51,-7.412,0.246
107.343227,-0.353,-7.528,0.226
107.352873,-0.196,-7.919,-0.042
107.362519,0,-7.958,-0.049
107.372165,0.157,-7.874,-0.074
107.381815,0.196,-7.635,-0.072
107.391465,0.235,-7.319,-0.056
107.401115,0.118,-6.876,0.142
107.410765,0.078,-6.349,0.314
107.420415,0.039,-6.328,0.199
107.430065,0.039,-7.428,-0.115
107.439715,-0.118,-8.049,0.015
107.449365,-0.196,-8.242,-0.019
107.459015,-0.157,-8.51,-0.306
107.468665,-0.196,-9.192,-0.505
107.478315,-0.314,-10.157,-0.676
107.487965,-0.51,-10.705,-0.732
107.497615,-0.667,-10.744,-0.739
107.507273,-0.902,-10.891,-0.805
107.516931,-1.098,-11.221,-0.744
107.526589,-1.255,-11.525,-0.598
107.536247,-1.412,-11.584,-0.489
107.545905,-1.373,-11.925,-0.589
107.555563,-1.294,-12.421,-0.716
107.565221,-1.334,-12.852,-0.753
107.574879,-1.334,-13.161,-0.807
107.584537,-1.412,-12.912,-0.644
107.594195,-1.412,-12.441,-0.6
107.603853,-1.412,-11.984,-0.48
107.613511,-1.412,-11.709,-0.232
107.623169,-1.373,-11.478,-0.192
107.632827,-1.373,-11.266,-0.035
107.642475,-1.412,-10.939,0.142
107.652123,-1.451,-10.503,0.379
107.661771,-1.451,-10.503,0.379
107.671419,-1.412,-10.555,0.449
107.681067,-1.373,-10.637,0.236
107.690715,-1.451,-10.469,0.186
107.700363,-1.373,-9.805,0.263
107.710011,-1.255,-9.353,0.183
107.719659,-1.138,-8.933,0.058
107.729307,-1.02,-8.43,0.147
107.738955,-0.902,-7.921,0.197
107.748603,-0.667,-7.669,0.122
107.758251,-0.588,-7.494,0.033
107.767899,-0.549,-7.628,-0.11
107.777548,-0.51,-7.88,-0.035
107.787197,-0.51,-7.887,0.003
107.796846,-0.392,-7.81,0.017
107.806495,-0.235,-8.446,-0.215
107.816144,-0.275,-9.003,0.006
107.825793,-0.118,-9.255,0.081
107.835442,-0.039,-9.262,0.119
107.845091,0,-9.262,0.119
107.85474,0.078,-9.866,-0.067
107.864389,0.196,-10.794,-0.23
107.874038,0.118,-11.323,-0.164
107.883687,0.275,-11.509,-0.237
107.893336,0.314,-11.7,-0.51
107.902985,0.275,-11.816,-0.53
107.91266,0.157,-11.566,-0.367
107.922335,0.235,-10.755,-0.223
107.93201,0.314,-10.432,-0.246
107.941685,0.353,-10.812,-0.353
107.95136,0.431,-12.337,-0.741
107.961035,0.353,-13.998,-1.034
107.97071,0.275,-14.323,-0.773
107.980385,0.51,-13.448,-0.539
107.99006,0.785,-12.412,-0.316
107.999735,0.667,-11.909,-0.228
108.00941,0.392,-11.543,-0.044
108.019085,0.471,-11.623,0.181
108.02876,0.588,-11.373,0.345
108.038437,0.667,-11.134,0.347
108.048114,0.706,-10.632,0.435
108.057791,0.706,-10.348,0.406
108.067468,0.628,-9.948,0.397
108.077145,0.51,-9.664,0.367
108.086822,0.353,-9.103,0.347
108.096499,0.235,-8.58,0.319
108.106176,0.118,-7.962,0.428
108.115853,0,-7.376,0.492
108.12553,-0.039,-7.021,0.515
108.135207,-0.078,-6.931,0.451
108.144884,-0.078,-7.008,0.437
108.154561,0,-7.29,0.228
108.164238,0.118,-7.694,0.037
108.173914,0.157,-7.892,-0.197
108.18359,0.196,-7.794,-0.299
108.193266,0.392,-7.446,-0.238
108.202942,0.549,-7.028,-0.124
108.212618,0.667,-6.738,-0.192
108.222294,0.667,-6.422,-0.176
108.23197,0.785,-7.583,-0.819
108.241646,0.628,-8.79,-0.753
108.251322,0.431,-8.546,-0.551
108.260998,0.51,-7.735,-0.408
108.270674,0.785,-7.926,-0.681
108.28035,0.745,-9.087,-0.646
108.290026,0.549,-10.176,-0.798
108.299702,0.431,-10.691,-0.81
108.30938,0.549,-10.871,-0.921
108.319058,0.667,-11.053,-0.794
108.328736,0.628,-11.035,-0.671
108.338414,0.785,-11.325,-0.603
108.348092,0.941,-11.764,-0.601
108.35777,0.981,-12.446,-0.8
108.367448,0.863,-13.205,-1.014
108.377126,0.785,-13.97,-1.189
108.386804,0.785,-14.395,-1.264
108.396482,0.785,-14.602,-1.22
108.40616,0.745,-14.191,-1.068
108.415838,0.667,-13.393,-0.848
108.425516,0.628,-12.614,-0.75
108.435194,0.588,-12.241,-0.605
108.444897,0.51,-11.907,-0.466
108.4546,0.51,-11.714,-0.432
108.464303,0.431,-11.732,-0.555
108.474006,0.353,-11.662,-0.503
108.483709,0.196,-11.371,-0.571
108.493412,0.039,-10.848,-0.598
108.503115,-0.196,-10.248,-0.612
108.512818,-0.353,-9.592,-0.496
108.522521,-0.431,-8.819,-0.36
108.532224,-0.431,-8.342,-0.356
108.541927,-0.392,-8.006,-0.456
108.55163,-0.353,-8.108,-0.553
108.561333,-0.314,-8.115,-0.515
108.571032,-0.196,-8.033,-0.301
108.580731,-0.078,-7.787,-0.337
108.59043,0,-7.587,-0.342
108.600129,0.039,-7.278,-0.288
108.609828,0.039,-7.047,-0.247
108.619527,0.196,-7.458,-0.399
108.629226,0.235,-7.994,-0.294
108.638925,0.275,-8.144,-0.122
108.648624,0.392,-8.19,-0.09
108.658323,0.431,-8.442,-0.015
108.668022,0.471,-8.976,-0.149
108.677721,0.392,-9.396,-0.024
108.68742,0.51,-9.642,0.013
108.697119,0.51,-9.776,-0.13
108.706835,0.431,-10.169,-0.16
108.716551,0.196,-10.666,-0.049
108.726267,0.078,-10.694,0.106
108.735983,0.039,-10.437,0.231
108.745699,0.039,-10.064,0.376
108.755415,0.078,-10.296,0.335
108.765131,0.157,-11.019,0.367
108.774847,0.353,-12.125,0.093
108.784563,0.549,-13.389,0.029
108.794279,0.745,-14.161,-0.107
108.803995,0.981,-14.509,-0.168
108.813711,1.059,-13.877,-0.137
108.823427,1.177,-12.982,-0.019
108.833135,1.098,-12.034,0.029
108.842843,1.059,-11.23,0.211
108.852551,0.981,-10.707,0.183
108.862259,1.02,-10.521,0.256
108.871967,0.981,-10.423,0.154
108.881675,0.941,-10.287,0.058
108.891383,0.785,-9.907,0.165
108.901091,0.549,-9.276,0.197
108.910799,0.314,-8.683,0.222
108.920507,0,-8.187,0.349
108.930215,-0.196,-7.685,0.437
108.939923,-0.314,-7.376,0.492
108.949631,-0.353,-7.176,0.487
108.959339,-0.314,-7.124,0.417
108.969062,-0.078,-7.149,0.333
108.978785,0.039,-7.244,0.196
108.988508,0.196,-7.29,0.228
108.998231,0.392,-7.412,0.246
109.007954,0.471,-7.549,0.342
109.017677,0.431,-7.537,0.503
109.0274,0.471,-8.058,0.292
109.037123,0.431,-9.637,0.213
109.046846,0.118,-9.455,0.763
109.056569,0.196,-8.932,0.735
109.066292,0.314,-8.748,0.369
109.076015,0.157,-9.566,0.265
109.085738,0.039,-10.694,0.106
109.095453,-0.039,-11.375,-0.094
109.105168,-0.039,-11.066,-0.039
109.114883,0,-10.653,-0.126
109.124598,-0.039,-10.537,-0.105
109.134313,-0.196,-10.441,0.031
109.144028,-0.196,-10.705,-0.055
109.153743,-0.353,-11.291,-0.119
109.163458,-0.51,-11.993,-0.203
109.173173,-0.745,-12.671,-0.203
109.182888,-0.941,-13.495,-0.269
109.192603,-1.059,-14.418,-0.232
109.202318,-1.334,-14.504,0.032
109.212033,-1.608,-14.113,0.3
109.221748,-1.804,-13.509,0.486
109.231475,-2.079,-13.054,0.845
109.241202,-2.118,-12.727,1.022
109.250929,-2.197,-12.477,1.186
109.260656,-2.197,-12.407,1.238
109.270383,-2.157,-12.316,1.174
109.28011,-2.157,-12.134,1.047
109.289837,-2.118,-11.707,0.883
109.299564,-2.001,-11.125,0.747
109.309291,-1.804,-10.357,0.683
109.319018,-1.569,-9.614,0.535
109.328745,-1.373,-8.885,0.465
109.338472,-1.177,-8.342,0.322
109.348199,-0.941,-7.851,0.249
109.357932,-0.745,-7.435,-0.076
109.367665,-0.549,-7.299,-0.172
109.377398,-0.431,-7.376,-0.185
109.387131,-0.353,-7.446,-0.238
109.396864,-0.275,-7.517,-0.29
109.406597,-0.196,-7.485,-0.244
109.41633,-0.196,-7.369,-0.224
109.426063,-0.196,-7.299,-0.172
109.435796,-0.196,-7.151,-0.106
109.445529,-0.196,-7.01,-0.001
109.455262,-0.157,-7.435,-0.076
109.464995,-0.196,-7.553,0.142
109.474728,-0.157,-8.196,-0.051
109.484461,-0.157,-8.674,-0.056
109.494216,-0.235,-8.796,-0.037
109.503971,-0.235,-9.285,-0.203
109.513726,-0.275,-9.773,-0.369
109.523481,-0.235,-10.655,-0.564
109.533236,-0.235,-11.221,-0.744
109.542991,-0.157,-11.544,-0.721
109.552746,-0.078,-11.396,-0.655
109.562501,-0.039,-10.798,-0.43
109.572256,0.039,-10.144,-0.076
109.582011,0.157,-10.003,0.029
109.591766,0.196,-10.944,-0.058
109.601521,0.275,-12.327,-0.341
109.611276,0.314,-13.577,-0.482
109.621041,0.314,-13.977,-0.473
109.630806,0.392,-13.886,-0.537
109.640571,0.353,-13.545,-0.437
109.650336,0.039,-13.211,-0.298
109.660101,-0.235,-12.877,-0.16
109.669866,-0.431,-12.318,0.059
109.679631,-0.628,-11.714,0.245
109.689396,-0.667,-11.289,0.32
109.699161,-0.667,-11.057,0.361
109.708926,-0.588,-11.005,0.29
109.718691,-0.588,-10.844,0.279
109.728456,-0.628,-10.489,0.301
109.738221,-0.667,-9.98,0.351
109.747986,-0.745,-9.503,0.356
109.757757,-0.785,-9.032,0.399
109.767528,-0.863,-8.523,0.449
109.777299,-0.785,-7.924,0.435
109.78707,-0.706,-7.524,0.426
109.796841,-0.588,-7.387,0.331
109.806612,-0.471,-7.335,0.26
109.816383,-0.392,-7.346,0.099
109.826154,-0.314,-7.319,-0.056
109.835925,-0.196,-7.408,-0.231
109.845696,-0.118,-7.381,-0.385
109.855467,-0.039,-7.128,-0.46
109.865238,0,-6.799,-0.522
109.875009,0,-6.29,-0.472
109.88478,-0.078,-5.954,-0.572
109.894529,-0.078,-7.656,-1.31
109.904278,-0.51,-8.342,-1.033
109.914027,-0.588,-8.278,-0.942
109.923776,-0.431,-7.869,-1.228
109.933525,-0.353,-8.094,-1.308
109.943274,-0.51,-8.992,-1.187
109.953023,-0.706,-9.855,-1.26
109.962772,-0.863,-10.526,-1.298
109.972521,-0.941,-11.298,-1.435
109.98227,-1.216,-11.462,-1.185
109.992019,-1.412,-11.43,-1.139
110.001768,-1.608,-11.482,-1.069
110.011517,-1.765,-11.991,-1.119
110.021266,-1.961,-12.809,-1.223
110.031022,-2.314,-13.673,-1.296
110.040778,-2.511,-14.132,-1.177
110.050534,-2.589,-14.009,-1.196
110.06029,-2.667,-13.648,-1.212
110.070046,-2.785,-13.23,-1.098
110.079802,-2.903,-12.818,-0.946
110.089558,-2.942,-12.15,-0.669
110.099314,-2.981,-11.437,-0.423
110.10907,-2.981,-11.019,-0.31
110.118826,-2.942,-10.878,-0.205
110.128582,-2.942,-10.937,-0.096
110.138338,-2.864,-10.969,-0.142
110.148094,-2.746,-10.853,-0.121
110.157815,-2.628,-10.705,-0.055
110.167536,-2.55,-10.369,-0.155
110.177257,-2.354,-10.116,-0.23
110.186978,-2.157,-9.91,-0.274
110.196699,-2.001,-9.58,-0.335
110.20642,-1.804,-9.051,-0.401
110.216141,-1.53,-8.399,-0.485
110.225862,-1.334,-7.862,-0.59
110.235583,-1.216,-7.462,-0.599
110.245304,-1.216,-7.281,-0.726
110.255025,-1.216,-7.228,-0.797
110.264746,-1.255,-7.113,-0.776
110.274467,-1.334,-6.944,-0.826
110.284188,-1.491,-6.803,-0.722
110.293909,-1.608,-6.694,-0.663
110.303606,-1.726,-6.617,-0.649
110.313303,-1.765,-6.803,-0.722
110.323,-1.648,-7.524,-0.928
110.332697,-1.569,-7.885,-0.912
110.342394,-1.412,-8.201,-0.928
110.352091,-1.412,-8.349,-0.994
110.361788,-1.491,-8.826,-0.999
110.371485,-1.53,-9.503,-0.999
110.381182,-1.569,-10.321,-1.103
110.390879,-1.451,-11.185,-1.176
110.400576,-1.373,-11.739,-1.194
110.410273,-1.255,-12.157,-1.307
110.41997,-1.294,-12.319,-1.296
110.429635,-1.451,-11.83,-1.13
110.4393,-1.491,-11.103,-0.962
110.448965,-1.412,-10.614,-0.796
110.45863,-1.294,-10.719,-0.655
110.468295,-1.138,-11.273,-0.673
110.47796,-0.981,-12.253,-0.766
110.487625,-0.902,-13.077,-0.832
110.49729,-0.785,-13.677,-0.818
110.506955,-0.785,-13.82,-0.684
110.51662,-0.941,-13.564,-0.559
110.526285,-1.059,-13.096,-0.278
110.53595,-1.098,-12.627,0.004
110.545615,-1.059,-12.514,0.263
110.55528,-0.902,-12.38,0.406
110.564935,-0.667,-12.302,0.42
110.57459,-0.51,-12.25,0.349
110.584245,-0.431,-11.805,0.308
110.5939,-0.392,-11.069,0.199
110.603555,-0.353,-10.346,0.167
110.61321,-0.392,-9.462,0.124
110.622865,-0.431,-8.61,0.035
110.63252,-0.471,-7.887,0.003
110.642175,-0.51,-7.217,0.042
110.65183,-0.471,-6.772,0.001
110.661485,-0.431,-6.488,-0.029
110.67114,-0.392,-6.344,-0.163
110.680795,-0.392,-6.556,-0.319
110.690425,-0.392,-6.865,-0.374
110.700055,-0.275,-6.992,-0.556
110.709685,-0.157,-6.785,-0.599
110.719315,-0.078,-6.442,-0.738
110.728945,-0.039,-6.183,-0.851
110.738575,-0.039,-6.022,-0.863
110.748205,-0.078,-5.776,-0.899
110.757835,-0.078,-6.224,-1.297
110.767465,-0.039,-7.953,-1.88
110.777095,-0.392,-8.194,-1.644
110.786725,-0.549,-7.749,-1.685
110.796355,-0.667,-7.597,-2.096
110.805985,-0.981,-8.478,-2.292
110.815615,-1.255,-9.915,-2.505
110.82525,-1.726,-10.508,-2.53
110.834885,-2.001,-10.424,-2.555
110.84452,-2.275,-10.571,-2.621
110.854155,-2.746,-10.773,-2.378
110.86379,-3.217,-10.873,-2.037
110.873425,-3.491,-11.192,-1.814
110.88306,-3.609,-11.76,-1.755
110.892695,-3.648,-13.196,-1.968
110.90233,-3.687,-15.134,-2.27
110.911965,-3.962,-15.716,-2.134
110.9216,-4.119,-14.932,-1.836
110.931235,-4.001,-13.752,-1.748
110.94087,-3.923,-13.103,-1.593
110.950491,-3.883,-12.609,-1.228
110.960112,-3.609,-11.65,-1.019
110.969733,-3.256,-10.544,-0.744
110.979354,-2.785,-9.526,-0.644
110.988975,-2.314,-8.926,-0.658
110.998596,-1.961,-8.649,-0.649
111.008217,-1.765,-8.321,-0.471
111.017838,-1.569,-7.98,-0.372
111.027459,-1.373,-7.756,-0.292
111.03708,-1.255,-7.706,-0.124
111.046701,-1.373,-7.687,-0.001
111.056322,-1.608,-7.728,0.231
111.065943,-1.844,-7.794,0.378
111.075564,-2.04,-7.828,0.571
111.085199,-2.197,-7.939,0.751
111.094834,-2.393,-8.005,0.899
111.104469,-2.432,-8.389,1.269
111.114104,-2.432,-8.728,1.608
111.123739,-2.275,-9.021,1.915
111.133374,-2.157,-9.041,2.03
111.143009,-2.001,-9.069,2.185
111.152644,-1.844,-9.064,2.385
111.162279,-1.844,-8.878,2.458
111.171914,-1.844,-8.762,2.478
111.181549,-1.883,-8.562,2.473
111.191184,-2.001,-8.33,2.514
111.200819,-2.079,-8.014,2.53
111.210446,-2.157,-7.816,2.764
111.220073,-2.275,-7.637,2.876
111.2297,-2.354,-7.639,3.114
111.239327,-2.393,-7.987,3.053
111.248954,-2.314,-8.909,3.089
111.258581,-2.393,-9.466,3.31
111.268208,-2.314,-10.234,3.374
111.277835,-2.314,-10.589,3.351
111.287462,-2.354,-11.382,3.331
111.297089,-2.432,-12.241,3.458
111.306716,-2.471,-12.825,3.833
111.316343,-2.471,-12.77,4.201
111.32597,-2.157,-12.77,4.201
111.335597,-2.001,-12.745,4.285
111.345243,-1.961,-12.572,4.435
111.354889,-1.765,-12.406,4.624
111.364535,-1.608,-11.897,4.674
111.374181,-1.373,-11.936,4.667
111.383827,-1.255,-12.522,4.603
111.393473,-1.216,-13.199,4.603
111.403119,-1.138,-13.336,4.699
111.412765,-1.02,-13.033,4.792
111.422411,-0.863,-12.718,4.808
111.432057,-0.863,-12.363,4.83
111.441703,-0.745,-12.093,4.878
111.451349,-0.549,-11.738,4.901
111.460995,-0.353,-11.545,4.935
111.47067,-0.157,-11.397,5.001
111.480345,-0.039,-11.409,4.839
111.49002,0.039,-11.522,4.58
111.499695,0.118,-11.552,4.296
111.50937,0.196,-11.266,4.028
111.519045,0.275,-10.882,3.658
111.52872,0.235,-10.305,3.321
111.538395,0.157,-9.727,2.985
111.54807,0.078,-9.112,2.655
111.557745,-0.039,-8.612,2.305
111.56742,-0.118,-8.01,2.053
111.577095,-0.235,-7.446,1.794
111.58677,-0.275,-6.915,1.489
111.596445,-0.235,-6.583,1.189
111.606151,-0.196,-6.451,0.894
111.615857,-0.235,-6.558,0.596
111.625563,-0.235,-6.826,0.31
111.635269,-0.275,-6.922,0.174
111.644975,-0.275,-6.869,0.103
111.654681,-0.314,-6.687,-0.024
111.664387,-0.392,-6.59,-0.126
111.674093,-0.549,-6.59,-0.126
111.683799,-0.667,-6.635,-0.095
111.693505,-0.706,-6.649,-0.017
111.703211,-0.667,-6.887,-0.019
111.712917,-0.628,-7.396,-0.069
111.722623,-0.588,-7.849,0.01
111.732329,-0.51,-8.062,0.092
111.742041,-0.549,-8.005,0.222
111.751753,-0.471,-7.999,0.183
111.761465,-0.431,-7.935,0.274
111.771177,-0.431,-7.755,0.385
111.780889,-0.392,-7.446,0.44
111.790601,-0.353,-7.271,0.351
111.800313,-0.353,-8.035,-0.063
111.810025,-0.431,-9.296,-0.365
111.819737,-0.706,-9.626,-0.303
111.829449,-0.824,-8.667,-0.094
111.839161,-0.667,-8.335,-0.394
111.848873,-0.628,-9.717,-0.917
111.858585,-0.902,-11.294,-1.235
111.868297,-1.216,-11.694,-1.225
111.878048,-1.098,-11.171,-1.253
111.887799,-0.941,-10.585,-1.189
111.89755,-0.981,-10.303,-0.98
111.907301,-1.177,-10.728,-1.055
111.917052,-1.294,-11.539,-1.198
111.926803,-1.294,-12.414,-1.432
111.936554,-1.294,-13.289,-1.666
111.946305,-1.412,-13.875,-1.73
111.956056,-1.687,-14.05,-1.641
111.965807,-1.922,-13.909,-1.536
111.975558,-2.079,-13.627,-1.327
111.985309,-2.314,-13.282,-1.028
111.99506,-2.511,-12.905,-0.682
112.004814,-2.785,-12.405,-0.355
112.014568,-2.981,-11.905,-0.028
112.024322,-3.177,-11.616,0.143
112.034076,-3.334,-11.643,0.297
112.04383,-3.491,-11.65,0.336
112.053584,-3.57,-11.457,0.37
112.063338,-3.53,-11.128,0.308
112.073092,-3.373,-10.844,0.279
112.082846,-3.256,-10.521,0.256
112.0926,-3.138,-10.23,0.188
112.102354,-3.02,-9.855,0.095
112.112108,-2.903,-9.487,0.04
112.121862,-2.746,-9.112,-0.053
112.131616,-2.628,-8.73,-0.185
112.141395,-2.471,-8.271,-0.303
112.151174,-2.197,-7.903,-0.358
112.160953,-1.922,-7.522,-0.49
112.170732,-1.765,-7.178,-0.628
112.180511,-1.687,-6.758,-0.753
112.19029,-1.608,-6.376,-0.885
112.200069,-1.53,-6.201,-0.974
112.209848,-1.569,-6.181,-1.09
112.219627,-1.648,-6.438,-1.215
112.229406,-1.765,-6.733,-1.347
112.239185,-1.883,-6.997,-1.433
112.248964,-2.001,-7.215,-1.551
112.258743,-2.157,-7.556,-1.651
112.268517,-2.197,-7.967,-1.803
112.278291,-2.197,-8.36,-1.833
112.288065,-2.197,-8.522,-1.821
112.297839,-2.079,-8.374,-1.755
112.307613,-1.922,-8.131,-1.553
112.317387,-1.804,-7.887,-1.351
112.327161,-1.687,-7.876,-1.19
112.336935,-1.53,-9.483,-1.792
112.346709,-1.451,-11.801,-2.2
112.356483,-1.569,-13.066,-2.025
112.366257,-1.569,-12.457,-1.639
112.376031,-1.334,-11.991,-1.796
112.385805,-1.451,-12.505,-2.046
112.395579,-1.765,-13.473,-1.977
112.405364,-1.804,-14.189,-1.984
112.415149,-1.53,-14.561,-2.129
112.424934,-1.294,-14.734,-2.279
112.434719,-1.294,-15.082,-2.341
112.444504,-1.255,-14.998,-2.366
112.454289,-1.098,-14.566,-2.329
112.464074,-1.02,-14.03,-2.434
112.473859,-1.02,-13.746,-2.464
112.483644,-0.863,-13.616,-2.52
112.493429,-0.667,-13.269,-2.459
112.503214,-0.51,-12.798,-2.416
112.512999,-0.51,-12.225,-2.275
112.522784,-0.628,-11.48,-1.984
112.532551,-0.745,-10.798,-1.785
112.542318,-0.785,-10.285,-1.535
112.552085,-0.902,-9.771,-1.285
112.561852,-1.02,-9.264,-0.996
112.571619,-1.059,-8.892,-0.851
112.581386,-1.098,-8.596,-0.719
112.591153,-1.02,-8.494,-0.621
112.60092,-0.981,-8.424,-0.569
112.610687,-0.902,-8.308,-0.549
112.620454,-0.785,-8.094,-0.631
112.630221,-0.745,-7.933,-0.642
112.639988,-0.667,-7.726,-0.685
112.649755,-0.588,-7.59,-0.781
112.659522,-0.588,-7.492,-0.883
112.669288,-0.628,-7.278,-0.965
112.679054,-0.588,-7.219,-1.074
112.68882,-0.549,-7.16,-1.183
112.698586,-0.471,-7.094,-1.331
112.708352,-0.275,-7.222,-1.512
112.718118,-0.157,-7.317,-1.649
112.727884,-0.078,-7.535,-1.767
112.73765,-0.039,-7.715,-1.878
112.747416,-0.039,-8.024,-1.933
112.757182,-0.039,-8.487,-2.014
112.766948,-0.039,-8.996,-2.064
112.776714,0,-9.421,-2.139
112.78648,-0.039,-9.942,-2.35
112.796221,-0.078,-10.553,-2.498
112.805962,-0.275,-11.101,-2.555
112.815703,-0.392,-11.23,-2.498
112.825444,-0.549,-10.998,-2.457
112.835185,-0.706,-10.644,-2.434
112.844926,-0.941,-10.599,-2.466
112.854667,-1.216,-11.185,-2.53
112.864408,-1.53,-12.041,-2.641
112.874149,-1.961,-12.848,-2.584
112.88389,-2.393,-12.928,-2.359
112.893631,-2.707,-11.971,-1.912
112.903372,-2.824,-11.032,-1.587
112.913113,-2.903,-11.405,-1.732
112.922854,-3.06,-11.305,-1.396
112.932591,-3.06,-11.028,-1.387
112.942328,-2.981,-11.169,-1.491
112.952065,-3.217,-11.414,-1.455
112.961802,-3.53,-11.364,-1.287
112.971539,-3.766,-11.498,-1.43
112.981276,-4.08,-11.821,-1.407
112.991013,-4.354,-11.75,-1.355
113.00075,-4.472,-11.571,-1.244
113.010487,-4.315,-11.571,-1.244
113.020224,-4.119,-11.585,-1.166
113.029961,-3.923,-11.353,-1.125
113.039698,-3.609,-11.044,-1.071
113.049435,-3.334,-10.671,-0.926
113.059156,-3.02,-10.298,-0.78
113.068877,-2.746,-9.873,-0.705
113.078598,-2.393,-9.487,-0.637
113.088319,-2.001,-9.171,-0.621
113.09804,-1.608,-8.828,-0.76
113.107761,-1.255,-8.537,-0.828
113.117482,-0.941,-8.324,-0.91
113.127203,-0.706,-8.026,-1.017
113.136924,-0.51,-7.774,-1.092
113.146645,-0.392,-7.553,-1.212
113.156366,-0.314,-7.456,-1.315
113.166087,-0.275,-7.319,-1.41
113.175808,-0.353,-7.229,-1.474
113.185529,-0.431,-7.215,-1.551
113.195237,-0.588,-7.194,-1.667
113.204945,-0.706,-7.188,-1.706
113.214653,-0.863,-7.251,-1.796
113.224361,-1.098,-7.265,-1.719
113.234069,-1.412,-7.226,-1.712
113.243777,-1.648,-7.188,-1.706
113.253485,-1.883,-7.24,-1.635
113.263193,-2.04,-7.51,-1.683
113.272901,-2.079,-8.013,-1.771
113.282609,-2.079,-8.56,-1.828
113.292317,-2.079,-9.108,-1.885
113.302025,-2.079,-9.68,-2.026
113.311733,-2.079,-10.137,-2.146
113.321441,-2.04,-10.703,-2.325
113.331111,-2.04,-11.353,-2.48
113.340781,-2.157,-11.553,-2.475
113.350451,-2.236,-11.43,-2.493
113.360121,-2.354,-11.905,-2.737
113.369791,-2.393,-13.153,-3.116
113.379461,-2.667,-13.38,-2.957
113.389131,-2.785,-12.969,-2.805
113.398801,-2.824,-12.601,-2.859
113.408471,-3.099,-12.294,-2.566
113.418141,-3.373,-11.601,-2.205
113.427811,-3.334,-10.669,-1.841
113.437481,-3.177,-9.667,-1.426
113.447151,-2.942,-9.069,-1.201
113.456821,-2.707,-9.205,-1.105
113.466486,-2.471,-9.517,-0.921
113.476151,-2.197,-9.726,-0.639
113.485816,-1.765,-10.055,-0.578
113.495481,-1.412,-10.426,-0.285
113.505146,-1.216,-10.789,-0.03
113.514811,-0.981,-11.153,0.224
113.524476,-0.667,-11.478,0.486
113.534141,-0.353,-11.796,0.708
113.543806,-0.118,-11.991,0.913
113.553471,0.118,-11.934,1.042
113.563136,0.314,-11.716,1.161
113.572801,0.471,-11.471,1.124
113.582466,0.549,-11.257,1.042
113.592133,0.51,-10.941,1.058
113.6018,0.471,-10.507,0.856
113.611467,0.314,-10.066,0.615
113.621134,0.078,-9.607,0.497
113.630801,-0.196,-9.205,0.249
113.640468,-0.51,-8.842,-0.006
113.650135,-0.785,-8.576,-0.158
113.659802,-0.941,-8.38,-0.362
113.669469,-1.138,-8.269,-0.542
113.679136,-1.255,-8.249,-0.658
113.688803,-1.334,-8.242,-0.696
113.69847,-1.334,-8.106,-0.792
113.708137,-1.294,-8.053,-0.862
113.717804,-1.294,-7.853,-0.867
113.727471,-1.255,-7.769,-0.892
113.737134,-1.138,-7.937,-0.842
113.746797,-1.02,-7.994,-0.971
113.75646,-0.902,-7.994,-0.971
113.766123,-0.824,-8.096,-1.069
113.775786,-0.706,-8.315,-1.187
113.785449,-0.628,-8.456,-1.292
113.795112,-0.588,-8.501,-1.26
113.804775,-0.51,-8.746,-1.224
113.814438,-0.431,-8.908,-1.212
113.824101,-0.353,-9.276,-1.158
113.833764,-0.196,-9.792,-1.169
113.843427,-0.078,-10.282,-1.096
113.85309,0.039,-10.542,-0.982
113.862728,0.235,-10.696,-1.01
113.872366,0.314,-10.864,-0.96
113.882004,0.275,-10.987,-0.941
113.891642,0.235,-11.007,-0.826
113.90128,0.118,-10.923,-0.851
113.910918,0.039,-10.923,-0.851
113.920556,-0.157,-10.93,-0.812
113.930194,-0.235,-11.366,-1.048
113.939832,-0.471,-12.15,-1.346
113.94947,-0.706,-13.057,-1.625
113.959108,-0.981,-13.307,-1.789
113.968746,-1.098,-13.016,-1.857
113.978384,-1.294,-12.359,-1.741
113.988022,-1.608,-11.503,-1.63
113.997641,-1.844,-10.73,-1.494
114.00726,-2.04,-10.183,-1.437
114.016879,-2.275,-9.567,-1.089
114.026498,-2.511,-8.79,-0.753
114.036117,-2.628,-8.996,-0.71
114.045736,-2.981,-9.744,-0.762
114.055355,-3.413,-10.421,-0.762
114.064974,-3.727,-10.814,-0.792
114.074593,-4.001,-11.007,-0.826
114.084212,-4.393,-11.169,-0.814
114.093831,-4.668,-11.221,-0.744
114.10345,-4.864,-11.035,-0.671
114.113069,-4.825,-10.68,-0.648
114.122688,-4.629,-10.312,-0.703
114.132306,-4.472,-10.048,-0.617
114.141924,-4.197,-9.767,-0.408
114.151542,-3.883,-9.36,-0.455
114.16116,-3.57,-9.03,-0.517
114.170778,-3.295,-8.876,-0.49
114.180396,-3.099,-8.746,-0.546
114.190014,-2.942,-8.63,-0.526
114.199632,-2.785,-8.578,-0.596
114.20925,-2.589,-8.455,-0.615
114.218868,-2.354,-8.48,-0.699
114.228486,-2.197,-8.551,-0.751
114.238104,-2.04,-8.744,-0.785
114.247722,-1.961,-8.769,-0.869
114.257364,-1.883,-8.717,-0.94
114.267006,-1.726,-8.678,-0.933
114.276648,-1.608,-8.71,-0.978
114.28629,-1.608,-8.735,-1.062
114.295932,-1.648,-8.721,-1.139
114.305574,-1.648,-8.715,-1.178
114.315216,-1.765,-8.662,-1.249
114.324858,-1.804,-8.487,-1.337
114.3345,-1.804,-8.358,-1.394
114.344142,-1.844,-8.183,-1.483
114.353784,-1.844,-8.099,-1.508
114.363426,-1.844,-7.931,-1.558
114.373068,-1.883,-7.769,-1.569
114.382709,-1.922,-7.833,-1.66
114.39235,-2.04,-8.367,-1.794
114.401991,-2.118,-8.637,-1.842
114.411632,-2.197,-8.842,-2.037
114.421273,-2.354,-9.158,-2.053
114.430914,-2.471,-9.499,-2.153
114.440555,-2.628,-9.917,-2.266
114.450196,-2.746,-10.335,-2.38
114.459837,-2.903,-10.521,-2.453
114.469478,-2.981,-10.462,-2.562
114.479119,-2.981,-10.346,-2.541
114.48876,-3.06,-10.192,-2.514
114.498401,-3.02,-10.115,-2.5
114.508042,-2.903,-10.642,-2.673
114.517714,-2.746,-11.717,-2.902
114.527386,-2.824,-11.662,-2.534
114.537058,-2.746,-10.903,-2.321
114.54673,-2.707,-10.471,-2.285
114.556402,-2.942,-10.283,-1.773
114.566074,-3.06,-9.823,-1.214
114.575746,-3.02,-9.394,-0.939
114.585418,-2.903,-9.326,-0.649
114.59509,-2.824,-9.637,-0.464
114.604762,-2.589,-10.416,-0.562
114.614434,-2.314,-10.907,-0.489
114.624106,-1.961,-10.696,-0.333
114.633778,-1.569,-10.657,-0.326
114.643456,-1.294,-10.721,-0.417
114.653134,-1.098,-10.878,-0.205
114.662812,-0.745,-10.891,-0.128
114.67249,-0.588,-10.944,-0.058
114.682168,-0.588,-11.125,0.07
114.691846,-0.588,-11.248,0.088
114.701524,-0.667,-11.325,0.074
114.711202,-0.745,-11.216,0.133
114.72088,-0.863,-11.196,0.017
114.730558,-1.02,-11.028,-0.033
114.740236,-1.138,-10.86,-0.083
114.749914,-1.255,-10.685,-0.171
114.759592,-1.373,-10.728,-0.378
114.76927,-1.569,-10.541,-0.305
114.778976,-1.687,-10.521,-0.421
114.788682,-1.765,-10.289,-0.38
114.798388,-1.844,-10.237,-0.451
114.808094,-1.961,-10.048,-0.617
114.8178,-2.04,-9.86,-0.783
114.827506,-2.118,-9.576,-0.812
114.837212,-2.118,-9.194,-0.944
114.846918,-2.157,-8.928,-1.096
114.856624,-2.118,-8.612,-1.08
114.86633,-2.079,-8.371,-1.317
114.876036,-2.04,-8.344,-1.471
114.885742,-1.961,-8.285,-1.58
114.895448,-1.883,-8.194,-1.644
114.905171,-1.726,-7.969,-1.565
114.914894,-1.687,-7.942,-1.719
114.924617,-1.648,-7.974,-1.764
114.93434,-1.608,-7.922,-1.835
114.944063,-1.451,-7.76,-1.846
114.953786,-1.334,-7.831,-1.899
114.963509,-1.334,-7.96,-1.842
114.973232,-1.255,-8.038,-1.855
114.982955,-1.098,-8.262,-1.935
114.992678,-0.981,-8.617,-1.958
115.002401,-0.981,-8.958,-2.057
115.012124,-0.981,-9.003,-2.026
115.021847,-0.941,-9.049,-1.994
115.03157,-1.02,-9.203,-2.021
115.041284,-1.098,-9.39,-2.094
115.050998,-1.138,-9.621,-2.135
115.060712,-1.216,-9.962,-2.235
115.070426,-1.255,-10.226,-2.321
115.08014,-1.216,-10.612,-2.389
115.089854,-1.216,-9.937,-2.151
115.099568,-0.941,-10.701,-2.564
115.109282,-0.941,-11.48,-2.662
115.118996,-1.059,-11.726,-2.625
115.12871,-1.177,-11.705,-2.741
115.138424,-1.412,-11.937,-2.782
115.148138,-1.765,-11.605,-2.405
115.157852,-2.118,-11.271,-2.266
115.167566,-2.236,-11.355,-2.241
115.177308,-2.354,-10.869,-1.837
115.18705,-2.275,-10.489,-1.73
115.196792,-2.197,-10.314,-1.819
115.206534,-2.197,-10.314,-1.819
115.216276,-2.354,-10.269,-1.851
115.226018,-2.432,-10.126,-1.985
115.23576,-2.628,-9.926,-1.989
115.245502,-2.785,-9.835,-2.053
115.255244,-2.903,-10.099,-2.139
115.264986,-3.138,-10.253,-2.166
115.274728,-3.295,-10.105,-2.101
115.28447,-3.609,-9.842,-2.014
115.294212,-3.962,-9.733,-1.955
115.303963,-4.354,-9.792,-1.846
115.313714,-4.629,-9.721,-1.794
115.323465,-4.668,-9.335,-1.726
115.333216,-4.629,-8.942,-1.696
115.342967,-4.55,-8.612,-1.758
115.352718,-4.433,-8.335,-1.749
115.362469,-4.236,-8.051,-1.778
115.37222,-3.923,-7.851,-1.783
115.381971,-3.57,-7.715,-1.878
115.391722,-3.256,-7.753,-1.885
115.401473,-2.981,-7.792,-1.892
115.411224,-2.785,-7.715,-1.878
115.420975,-2.628,-7.715,-1.878
115.430726,-2.471,-7.715,-1.878
115.440477,-2.393,-7.799,-1.853
115.450247,-2.393,-7.922,-1.835
115.460017,-2.471,-8.09,-1.785
115.469787,-2.432,-8.774,-1.746
115.479557,-2.471,-9.414,-1.501
115.489327,-2.471,-10.228,-1.405
115.499097,-2.354,-10.998,-1.103
115.508867,-2.275,-11.046,-0.832
115.518637,-2.157,-10.739,-0.539
115.528407,-2.04,-10.476,-0.453
115.538177,-2.001,-10.251,-0.374
115.547947,-1.961,-10.037,-0.455
115.557717,-2.001,-9.669,-0.51
115.567487,-2.04,-9.371,-0.617
115.577245,-2.157,-9.162,-0.899
115.587003,-2.275,-9.269,-1.196
115.596761,-2.393,-9.594,-1.612
115.606519,-2.471,-9.785,-1.885
115.616277,-2.628,-9.796,-2.046
115.626035,-2.707,-9.724,-2.232
115.635793,-2.707,-9.574,-2.405
115.645551,-2.667,-9.212,-2.421
115.655309,-2.589,-8.824,-2.592
115.665067,-2.432,-8.526,-2.698
115.674825,-2.314,-8.538,-2.86
115.684583,-2.236,-9.14,-3.285
115.694341,-2.275,-10.233,-3.637
115.704099,-2.432,-10.535,-3.73
115.713868,-2.55,-10.135,-3.739
115.723637,-2.55,-9.967,-3.789
115.733406,-2.628,-10.058,-3.725
115.743175,-2.628,-10.04,-3.603
115.752944,-2.589,-9.572,-3.321
115.762713,-2.471,-9.044,-3.148
115.772482,-2.236,-8.678,-2.964
115.782251,-1.961,-8.365,-2.71
115.79202,-1.569,-8.276,-2.535
115.801789,-1.138,-8.542,-2.382
115.811558,-0.824,-8.899,-2.167
115.821327,-0.628,-9.435,-2.062
115.831096,-0.549,-9.974,-1.719
115.84085,-0.353,-10.517,-1.576
115.850604,-0.196,-10.88,-1.321
115.860358,0,-11.332,-1.241
115.870112,0.196,-11.689,-1.025
115.879866,0.431,-11.709,-0.91
115.88962,0.588,-11.805,-1.046
115.899374,0.667,-11.741,-0.955
115.909128,0.667,-11.446,-0.823
115.918882,0.549,-11.335,-1.003
115.928636,0.353,-10.994,-0.903
115.93839,0.196,-10.766,-1.062
115.948144,0.039,-10.419,-1.001
115.957898,-0.039,-10.314,-1.142
115.967652,-0.235,-10.083,-1.101
115.977381,-0.471,-9.919,-1.351
115.98711,-0.628,-9.624,-1.219
115.996839,-0.706,-9.628,-1.419
116.006568,-0.745,-9.455,-1.269
116.016297,-0.706,-9.442,-1.346
116.026026,-0.667,-9.053,-1.517
116.035755,-0.667,-9.028,-1.433
116.045484,-0.667,-8.951,-1.419
116.055213,-0.628,-8.969,-1.542
116.064942,-0.628,-9.135,-1.73
116.074671,-0.628,-9.283,-1.796
116.0844,-0.549,-9.262,-1.912
116.094129,-0.314,-9.224,-1.905
116.103858,-0.118,-9.346,-1.887
116.113563,0.039,-9.385,-1.894
116.123268,0.118,-9.242,-2.028
116.132973,0.118,-9.042,-2.032
116.142678,0.078,-8.926,-2.012
116.152383,0,-8.951,-2.096
116.162088,0,-8.965,-2.019
116.171793,0.039,-8.758,-2.062
116.181498,0.275,-8.653,-2.203
116.191203,0.275,-8.544,-2.144
116.200908,0.275,-8.537,-2.183
116.210613,0.196,-8.608,-2.235
116.220318,0.196,-8.724,-2.255
116.230023,0.235,-8.981,-2.38
116.239728,0.353,-9.16,-2.491
116.24943,0.549,-9.231,-2.544
116.259132,0.824,-9.308,-2.557
116.268834,1.059,-9.392,-2.532
116.278536,1.255,-9.494,-2.63
116.288238,1.373,-9.646,-2.896
116.29794,1.412,-9.717,-2.948
116.307642,1.451,-9.447,-2.9
116.317344,1.491,-9.362,-2.925
116.327046,1.373,-9.265,-3.028
116.336748,1.216,-9.258,-3.066
116.34645,0.981,-9.599,-3.166
116.356152,0.863,-10.133,-3.3
116.365854,0.863,-10.996,-3.373
116.375528,0.824,-11.608,-3.521
116.385202,0.706,-11.796,-3.355
116.394876,0.549,-11.328,-3.073
116.40455,0.431,-10.896,-3.037
116.414224,0.392,-11.046,-2.864
116.423898,0.392,-10.933,-2.605
116.433572,0.549,-10.637,-2.473
116.443246,0.392,-10.496,-2.369
116.45292,0.118,-10.485,-2.207
116.462594,-0.314,-10.492,-2.169
116.472268,-0.667,-10.633,-2.273
116.481942,-0.981,-10.98,-2.334
116.491616,-1.373,-11.276,-2.466
116.50129,-1.726,-11.314,-2.473
116.510963,-2.001,-11.139,-2.562
116.520636,-2.079,-11.023,-2.541
116.530309,-2.314,-10.753,-2.494
116.539982,-2.393,-10.437,-2.478
116.549655,-2.471,-10.167,-2.43
116.559328,-2.471,-9.974,-2.396
116.569001,-2.354,-9.78,-2.362
116.578674,-2.197,-9.51,-2.314
116.588347,-1.922,-9.303,-2.357
116.59802,-1.53,-9.103,-2.362
116.607693,-1.177,-9.058,-2.394
116.617366,-0.863,-8.851,-2.437
116.627039,-0.549,-8.728,-2.455
116.636694,-0.314,-8.413,-2.439
116.646349,-0.118,-8.219,-2.405
116.656004,0.039,-7.86,-2.183
116.665659,0.235,-8.019,-2.41
116.675314,0.118,-8.415,-2.201
116.684969,0.078,-8.512,-2.098
116.694624,0.157,-8.719,-2.055
116.704279,0.118,-8.831,-1.876
116.713934,0.078,-8.908,-1.889
116.723589,-0.118,-8.96,-1.819
116.733244,-0.235,-9.096,-1.723
116.742899,-0.275,-9.271,-1.635
116.752554,-0.353,-9.383,-1.455
116.762209,-0.51,-9.596,-1.373
116.771882,-0.706,-9.667,-1.426
116.781555,-0.981,-9.828,-1.414
116.791228,-1.02,-9.835,-1.376
116.800901,-0.941,-9.61,-1.296
116.810574,-0.745,-9.649,-1.303
116.820247,-0.706,-9.719,-1.355
116.82992,-0.588,-9.899,-1.467
116.839593,-0.51,-10.019,-1.687
116.849266,-0.431,-10.005,-1.764
116.858939,-0.314,-10.049,-1.971
116.868612,-0.118,-10.021,-2.126
116.878285,0.118,-10.078,-2.255
116.887958,0.353,-9.91,-2.305
116.897628,0.392,-9.715,-2.51
116.907298,0.196,-9.712,-2.748
116.916968,0.118,-9.699,-2.825
116.926638,0.078,-9.646,-2.896
116.936308,0.039,-9.472,-2.985
116.945978,0.157,-9.444,-3.139
116.955648,0.235,-9.508,-3.23
116.965318,0.235,-9.515,-3.191
116.974988,0.118,-9.676,-3.18
116.984658,-0.078,-9.817,-3.284
116.994328,-0.157,-10.151,-3.423
117.003998,-0.235,-10.274,-3.405
117.013668,-0.118,-10.21,-3.314
117.023338,0,-10.108,-3.216
117.032987,0.157,-10.09,-3.094
117.042636,0.235,-10.033,-2.964
117.052285,0.275,-9.821,-2.807
117.061934,0.471,-9.828,-2.769
117.071583,0.824,-9.649,-2.657
117.081232,1.491,-9.803,-2.685
117.090881,2.236,-10.08,-2.694
117.10053,2.864,-10.276,-2.489
117.110179,3.06,-9.912,-2.066
117.119828,2.903,-9.237,-1.828
117.129477,2.589,-8.937,-1.496
117.139126,2.393,-9.228,-1.428
117.148775,2.432,-9.61,-1.296
117.158424,2.707,-10.126,-1.307
117.168075,2.746,-10.88,-1.321
117.177726,2.354,-11.171,-1.253
117.187377,1.608,-10.932,-1.251
117.197028,0.863,-10.512,-1.376
117.206679,0.392,-10.31,-1.619
117.21633,0.196,-10.303,-1.657
117.225981,0.118,-10.219,-1.682
117.235632,0.157,-10.051,-1.732
117.245283,0.157,-10.017,-1.926
117.254934,0.235,-10.121,-1.785
117.264585,0.275,-9.967,-1.757
117.274236,0.314,-10.005,-1.764
117.283887,0.471,-10.353,-1.826
117.293523,0.745,-11.023,-1.864
117.303159,1.334,-11.405,-1.732
117.312795,1.804,-11.394,-1.571
117.322431,1.922,-11.053,-1.471
117.332067,1.804,-10.692,-1.487
117.341703,1.412,-10.414,-1.478
117.351339,1.059,-10.214,-1.482
117.360975,0.628,-9.917,-1.589
117.370611,0.353,-9.696,-1.71
117.380247,0.157,-9.508,-1.876
117.389883,0,-9.287,-1.996
117.399519,-0.157,-9.253,-2.189
117.409155,-0.235,-9.265,-2.351
117.418791,-0.196,-9.258,-2.389
117.428463,-0.157,-9.051,-2.432
117.438135,-0.078,-9.056,-2.632
117.447807,-0.039,-8.958,-2.735
117.457479,-0.039,-8.79,-2.785
117.467151,-0.039,-8.478,-2.969
117.476823,-0.078,-8.272,-3.012
117.486495,-0.314,-8.142,-3.069
117.496167,-0.51,-7.96,-3.196
117.505839,-0.628,-7.908,-3.267
117.515511,-0.549,-8.14,-3.307
117.525183,-0.275,-8.442,-3.401
117.534855,-0.039,-8.649,-3.357
117.544527,0.275,-8.772,-3.339
117.554215,0.431,-9.113,-3.439
117.563903,0.392,-9.249,-3.344
117.573591,0.275,-9.34,-3.28
117.583279,0.078,-9.417,-3.294
117.592967,-0.118,-9.469,-3.223
117.602655,-0.275,-9.406,-3.132
117.612343,-0.549,-9.206,-3.137
117.622031,-0.667,-9.122,-3.162
117.631719,-0.863,-8.883,-3.16
117.641407,-1.059,-8.831,-3.23
117.651095,-1.255,-8.804,-3.385
117.660783,-1.373,-8.822,-3.507
117.670471,-1.412,-8.808,-3.585
117.680159,-1.412,-8.742,-3.732
117.689849,-1.373,-8.651,-3.796
117.699539,-1.412,-8.567,-3.821
117.709229,-1.373,-8.529,-3.814
117.718919,-1.451,-8.483,-3.846
117.728609,-1.491,-8.592,-3.905
117.738299,-1.491,-8.76,-3.855
117.747989,-1.412,-9.365,-4.041
117.757679,-1.373,-10.137,-4.177
117.767369,-1.334,-10.59,-4.098
117.777059,-1.294,-10.596,-4.059
117.786749,-1.177,-10.371,-3.98
117.796439,-1.059,-10.156,-3.623
117.806129,-0.941,-9.835,-3.407
117.815819,-0.824,-9.606,-3.128
117.825513,-0.824,-9.369,-2.887
117.835207,-0.745,-9.371,-2.648
117.844901,-0.745,-9.469,-2.546
117.854595,-0.706,-9.683,-2.464
117.864289,-0.549,-10.09,-2.416
117.873983,-0.392,-10.399,-2.471
117.883677,-0.235,-10.489,-2.407
117.893371,-0.196,-10.464,-2.323
117.903065,-0.235,-10.433,-2.278
117.912759,-0.235,-10.414,-2.155
117.922453,-0.275,-10.344,-2.103
117.932147,-0.235,-10.228,-2.082
117.941841,-0.157,-10.112,-2.062
117.951535,-0.078,-10.158,-2.03
117.961261,-0.039,-10.164,-1.991
117.970987,0,-10.055,-1.932
117.980713,0.039,-9.849,-1.976
117.990439,0.078,-9.726,-1.994
118.000165,0.078,-9.68,-2.026
118.009891,0.078,-9.66,-2.141
118.019617,0.039,-9.73,-2.194
118.029343,-0.039,-9.653,-2.18
118.039069,0,-9.537,-2.16
118.048795,0,-9.337,-2.164
118.058521,-0.078,-9.137,-2.169
118.068247,-0.196,-8.983,-2.142
118.077973,-0.353,-9.021,-2.148
118.087705,-0.471,-9.144,-2.13
118.097437,-0.471,-9.253,-2.189
118.107169,-0.431,-9.369,-2.21
118.116901,-0.431,-9.485,-2.23
118.126633,-0.353,-9.594,-2.289
118.136365,-0.314,-9.594,-2.289
118.146097,-0.353,-9.478,-2.269
118.155829,-0.392,-9.285,-2.235
118.165561,-0.431,-9.137,-2.169
118.175293,-0.51,-9.028,-2.11
118.185025,-0.51,-8.996,-2.064
118.194757,-0.51,-9.035,-2.071
118.204489,-0.51,-9.042,-2.032
118.214221,-0.588,-9.049,-1.994
118.22395,-0.588,-9.165,-2.014
118.233679,-0.745,-9.41,-1.978
118.243408,-0.863,-9.533,-1.96
118.253137,-0.863,-9.739,-1.916
118.262866,-0.824,-9.746,-1.878
118.272595,-0.824,-9.676,-1.826
118.282324,-0.863,-9.676,-1.826
118.292053,-0.824,-9.778,-1.923
118.301782,-0.824,-9.939,-1.912
118.311511,-0.902,-9.933,-1.951
118.32124,-0.981,-10.01,-1.964
118.330969,-1.138,-10.119,-2.023
118.340698,-1.255,-10.319,-2.019
118.350427,-1.373,-10.505,-2.091
118.360141,-1.451,-10.512,-2.053
118.369855,-1.53,-10.519,-2.014
118.379569,-1.569,-10.48,-2.007
118.389283,-1.687,-10.396,-2.032
118.398997,-1.804,-10.467,-2.085
118.408711,-1.804,-10.962,-2.212
118.418425,-1.804,-11.619,-2.328
118.428139,-1.804,-11.889,-2.375
118.437853,-1.804,-11.773,-2.355
118.447567,-1.687,-11.605,-2.405
118.457281,-1.569,-11.637,-2.45
118.466995,-1.412,-11.567,-2.398
118.476709,-1.255,-11.244,-2.421
118.486423,-1.138,-10.773,-2.378
118.49615,-0.941,-10.18,-2.353
118.505877,-0.745,-9.583,-2.128
118.515604,-0.588,-8.958,-2.057
118.525331,-0.314,-8.301,-1.942
118.535058,0.039,-8.024,-1.933
118.544785,0.431,-8.147,-1.914
118.554512,0.706,-8.322,-1.826
118.564239,0.981,-8.74,-1.939
118.573966,1.334,-9.017,-1.948
118.583693,1.687,-9.255,-1.951
118.59342,1.961,-9.494,-1.953
118.603147,2.236,-9.655,-1.942
118.612874,2.511,-9.824,-1.891
118.622609,2.667,-9.735,-1.717
118.632344,2.746,-9.889,-1.744
118.642079,2.746,-10.226,-1.644
118.651814,2.628,-10.285,-1.535
118.661549,2.511,-10.214,-1.482
118.671284,2.354,-10.183,-1.437
118.681019,2.197,-10.287,-1.296
118.690754,1.922,-10.037,-1.132
118.700489,1.648,-10.044,-1.094
118.710224,1.373,-10.128,-1.069
118.719959,1.138,-10.482,-1.092
118.729694,0.941,-10.605,-1.073
118.739429,0.785,-10.514,-1.137
118.749164,0.706,-10.301,-1.219
118.75889,0.588,-10.062,-1.217
118.768616,0.667,-9.996,-1.364
118.778342,0.667,-9.796,-1.369
118.788068,0.706,-9.28,-1.358
118.797794,0.667,-8.86,-1.483
118.80752,0.628,-8.91,-1.651
118.817246,0.51,-8.865,-1.683
118.826972,0.392,-8.721,-1.817
118.836698,0.275,-8.708,-1.894
118.846424,0.078,-8.662,-1.926
118.85615,0,-8.597,-2.073
118.865876,-0.039,-8.583,-2.151
118.875602,-0.118,-8.583,-2.151
118.885328,-0.118,-8.653,-2.203
118.895072,-0.196,-8.615,-2.196
118.904816,-0.235,-8.531,-2.221
118.91456,-0.314,-8.608,-2.235
118.924304,-0.314,-8.672,-2.326
118.934048,-0.314,-8.935,-2.412
118.943792,-0.235,-9.058,-2.394
118.953536,-0.078,-9.058,-2.394
118.96328,0.157,-8.992,-2.541
118.973024,0.353,-9.01,-2.664
118.982768,0.667,-9.165,-2.691
118.992512,0.941,-9.337,-2.841
119.002256,1.177,-9.433,-2.978
119.012,1.334,-9.567,-3.121
119.021756,1.491,-9.851,-3.091
119.031512,1.491,-10.146,-3.223
119.041268,1.491,-10.571,-3.298
119.051024,1.373,-10.605,-3.105
119.06078,1.294,-10.921,-3.121
119.070536,1.294,-11.835,-3.361
119.080292,1.255,-12.378,-3.218
119.090048,1.334,-11.923,-2.859
119.099804,1.53,-11.278,-2.905
119.10956,1.687,-11.394,-2.925
119.119316,1.53,-11.358,-2.68
119.129072,1.53,-10.51,-2.291
119.138828,1.569,-9.269,-1.873
119.148584,1.53,-8.826,-1.676
119.158332,1.216,-9.344,-1.448
119.16808,0.667,-9.573,-1.051
119.177828,0.275,-10.001,-0.887
119.187576,-0.157,-10.53,-0.821
119.197324,-0.667,-11.048,-0.594
119.207072,-1.216,-11.494,-0.553
119.21682,-1.648,-11.964,-0.596
119.226568,-1.883,-12.357,-0.625
119.236316,-2.118,-12.462,-0.485
119.246064,-2.197,-12.243,-0.366
119.255812,-2.118,-11.928,-0.351
119.26556,-1.961,-11.798,-0.407
119.275308,-1.765,-11.373,-0.332
119.285056,-1.53,-11.094,-0.562
119.294777,-1.334,-10.816,-0.553
119.304498,-1.02,-10.371,-0.594
119.314219,-0.785,-9.912,-0.712
119.32394,-0.51,-9.66,-0.787
119.333661,-0.275,-9.408,-0.862
119.343382,-0.118,-9.142,-1.014
119.353103,-0.039,-8.883,-1.128
119.362824,0.039,-8.631,-1.203
119.372545,0.118,-8.224,-1.251
119.382266,0.235,-8.067,-1.462
119.391987,0.235,-8.183,-1.483
119.401708,0.196,-8.131,-1.553
119.411429,0.078,-8.187,-1.683
119.42115,0,-8.283,-1.819
119.430838,-0.157,-8.547,-1.905
119.440526,-0.235,-8.642,-2.042
119.450214,-0.235,-8.333,-1.987
119.459902,-0.314,-7.951,-2.119
119.46959,-0.353,-8.247,-2.251
119.479278,-0.51,-8.422,-2.162
119.488966,-0.628,-8.453,-2.208
119.498654,-0.745,-8.503,-2.376
119.508342,-0.863,-8.51,-2.337
119.51803,-0.941,-8.517,-2.298
119.527718,-0.941,-8.394,-2.317
119.537406,-0.941,-8.388,-2.355
119.547094,-0.902,-8.503,-2.376
119.556782,-0.824,-8.658,-2.403
119.566465,-0.824,-8.812,-2.43
119.576148,-0.785,-9.122,-2.485
119.585831,-0.941,-9.571,-2.644
119.595514,-1.177,-9.919,-2.705
119.605197,-1.412,-10.144,-2.784
119.61488,-1.451,-10.26,-2.805
119.624563,-1.53,-10.021,-2.803
119.634246,-1.412,-9.874,-2.737
119.643929,-1.334,-9.733,-2.632
119.653612,-1.059,-10.249,-2.644
119.663295,-0.863,-10.976,-2.812
119.672978,-0.706,-11.846,-2.846
119.682661,-0.667,-11.912,-2.698
119.692331,-0.588,-11.585,-2.521
119.702001,-0.51,-11.598,-2.443
119.711671,-0.431,-11.337,-2.119
119.721341,-0.275,-10.496,-1.691
119.731011,0.157,-9.803,-1.33
119.740681,0.628,-10.278,-1.573
119.750351,0.824,-11.348,-1.603
119.760021,0.863,-11.401,-1.532
119.769691,1.177,-11.053,-1.471
119.779361,1.491,-10.698,-1.448
119.789031,1.648,-10.571,-1.266
119.798701,1.883,-10.417,-1.239
119.808371,2.157,-10.578,-1.228
119.818041,2.275,-10.921,-1.089
119.827701,2.314,-11.071,-0.916
119.837361,2.275,-11.232,-0.905
119.847021,2.354,-11.085,-0.839
119.856681,2.393,-11.053,-0.794
119.866341,2.197,-11.014,-0.787
119.876001,2.04,-10.873,-0.682
119.885661,1.883,-10.589,-0.712
119.895321,1.726,-10.351,-0.71
119.904981,1.608,-10.221,-0.767
119.914641,1.373,-10.13,-0.83
119.924301,1.138,-9.969,-0.842
119.933961,0.941,-9.717,-0.917
119.943621,0.745,-9.587,-0.973
119.953281,0.549,-9.612,-1.058
119.962957,0.353,-9.258,-1.035
119.972633,0.275,-8.89,-1.089
119.982309,0.157,-8.676,-1.171
119.991985,0.078,-8.469,-1.215
120.001661,0.118,-8.365,-1.355
120.011337,0.157,-8.067,-1.462
120.021013,0.275,-7.899,-1.512
120.030689,0.392,-7.981,-1.726
120.040365,0.549,-8.083,-1.824
120.050041,0.667,-7.806,-1.815
120.059717,0.745,-7.515,-1.883
120.069393,0.745,-7.463,-1.953
120.079069,0.667,-7.488,-2.037
120.088749,0.667,-7.758,-2.085
120.098429,0.667,-7.835,-2.099
120.108109,0.785,-7.867,-2.144
120.117789,1.02,-8.46,-2.169
120.127469,1.216,-9.012,-2.426
120.137149,1.334,-9.328,-2.441
120.146829,1.491,-9.128,-2.446
120.156509,1.648,-9.321,-2.48
120.166189,1.726,-9.476,-2.507
120.175869,1.804,-9.933,-2.628
120.185549,1.804,-10.119,-2.7
120.195229,1.726,-9.933,-2.628
120.204909,1.648,-9.778,-2.6
120.214589,1.294,-9.644,-2.457
120.224273,0.902,-9.896,-2.382
120.233957,0.549,-10.669,-2.519
120.243641,0.275,-12.221,-2.752
120.253325,-0.078,-13.259,-2.736
120.263009,-0.235,-12.748,-2.248
120.272693,-0.157,-11.91,-2.259
120.282377,-0.196,-10.946,-1.85
120.292061,-0.196,-10.048,-1.294
120.301745,-0.039,-9.883,-1.105
120.311429,0.039,-10.212,-1.044
120.321113,0.039,-10.703,-0.971
120.330797,-0.039,-11.198,-1.098
120.340481,-0.118,-12.009,-1.241
120.350165,-0.471,-12.255,-1.205
120.359836,-0.667,-12.146,-1.146
120.369507,-0.785,-11.953,-1.112
120.379178,-1.098,-11.419,-0.978
120.388849,-1.412,-11.035,-0.671
120.39852,-1.648,-10.746,-0.501
120.408191,-1.844,-10.573,-0.351
120.417862,-1.961,-10.373,-0.355
120.427533,-1.844,-10.444,-0.408
120.437204,-1.687,-10.173,-0.36
120.446875,-1.412,-9.967,-0.403
120.456546,-1.255,-9.837,-0.46
120.466217,-1.098,-9.732,-0.601
120.475888,-0.902,-9.694,-0.594
120.485559,-0.785,-8.96,-0.465
120.49525,-0.51,-8.515,-0.506
120.504941,-0.314,-8.374,-0.401
120.514632,-0.196,-8.58,-0.358
120.524323,-0.118,-8.78,-0.353
120.534014,-0.039,-9.033,-0.278
120.543705,0.039,-8.821,-0.121
120.553396,0.196,-8.955,-0.265
120.563087,0.314,-9.123,-0.215
120.572778,0.392,-8.976,-0.149
120.582469,0.471,-8.885,-0.212
120.59216,0.431,-8.923,-0.219
120.601851,0.392,-9.162,-0.221
120.611542,0.353,-9.503,-0.321
120.621253,0.275,-9.612,-0.38
120.630964,0.157,-9.458,-0.353
120.640675,0.039,-9.321,-0.449
120.650386,0,-9.321,-0.449
120.660097,-0.078,-9.442,-0.669
120.669808,-0.078,-9.748,-0.962
120.679519,-0.196,-9.78,-1.008
120.68923,-0.157,-9.644,-1.103
120.698941,-0.196,-9.751,-1.401
120.708652,-0.392,-10.51,-1.614
120.718363,-0.588,-11.005,-1.741
120.728074,-0.785,-11.042,-1.987
120.737785,-0.745,-10.93,-2.166
120.747496,-0.706,-10.839,-2.23
120.7572,-0.667,-10.408,-2.194
120.766904,-0.549,-9.969,-2.196
120.776608,-0.353,-9.903,-2.344
120.786312,-0.078,-10.88,-2.675
120.796016,0,-11.757,-2.671
120.80572,0.078,-11.473,-2.7
120.815424,0.235,-10.958,-2.689
120.825128,0.118,-10.319,-2.696
120.834832,-0.118,-9.471,-2.307
120.844536,-0.235,-8.403,-2.039
120.85424,-0.118,-7.753,-1.885
120.863944,0.039,-7.69,-1.794
120.873648,0.275,-8.283,-1.819
120.883352,0.549,-9.142,-1.692
120.893043,0.824,-9.319,-1.364
120.902734,1.177,-9.271,-0.958
120.912425,1.451,-9.81,-0.614
120.922116,1.608,-10.819,-0.314
120.931807,1.922,-11.834,0.024
120.941498,2.236,-12.327,0.336
120.951189,2.707,-12.698,0.629
120.96088,2.824,-12.957,0.743
120.970571,2.785,-12.959,0.981
120.980262,2.628,-12.857,1.079
120.989953,2.511,-12.689,1.029
120.999644,2.354,-12.359,0.967
121.009335,2.157,-11.777,0.831
121.019026,1.922,-11.323,0.513
121.0287,1.608,-10.955,0.458
121.038374,1.294,-10.405,0.276
121.048048,1.02,-9.957,-0.003
121.057722,0.824,-9.492,-0.16
121.067396,0.706,-9.335,-0.371
121.07707,0.588,-8.901,-0.574
121.086744,0.628,-8.737,-0.824
121.096418,0.745,-8.755,-0.946
121.106092,0.745,-8.465,-1.015
121.115766,0.785,-8.128,-1.115
121.12544,0.667,-7.862,-1.267
121.135114,0.392,-7.56,-1.174
121.144788,0.353,-7.558,-1.412
121.154462,0.275,-7.544,-1.49
121.164154,0.275,-7.453,-1.553
121.173846,0.353,-7.194,-1.667
121.183538,0.431,-6.963,-1.626
121.19323,0.549,-6.724,-1.624
121.202922,0.588,-6.376,-1.562
121.212614,0.235,-6.583,-1.519
121.222306,-0.392,-7.344,-1.494
121.231998,-1.02,-8.192,-1.205
121.24169,-1.177,-8.767,-1.108
121.251382,-0.824,-9.115,-1.169
121.261074,-0.314,-9.508,-1.198
121.270766,0.353,-9.894,-1.267
121.280458,1.059,-10.119,-1.346
121.290161,1.608,-10.201,-1.56
121.299864,2.04,-10.587,-1.628
121.309567,2.275,-10.846,-1.514
121.31927,2.393,-11.014,-1.464
121.328973,2.471,-10.93,-1.489
121.338676,2.432,-10.93,-1.489
121.348379,2.354,-11.162,-1.53
121.358082,2.079,-11.773,-1.678
121.367785,1.844,-12.475,-1.762
121.377488,1.569,-13.596,-1.959
121.387191,1.098,-13.946,-1.782
121.396894,0.706,-12.905,-1.359
121.406597,0.549,-11.573,-1.005
121.4163,0.392,-10.48,-0.653
121.425995,0.157,-10.069,-0.501
121.43569,-0.078,-10.332,-0.587
121.445385,-0.353,-11.08,-0.639
121.45508,-0.667,-11.171,-0.576
121.464775,-0.902,-10.964,-0.619
121.47447,-1.138,-10.841,-0.637
121.484165,-1.294,-10.803,-0.63
121.49386,-1.334,-10.912,-0.689
121.503555,-1.334,-10.95,-0.696
121.51325,-1.216,-10.996,-0.664
121.522945,-1.02,-10.957,-0.657
121.53264,-0.824,-11.066,-0.717
121.542335,-0.628,-11.228,-0.705
121.55203,-0.471,-11.241,-0.628
121.561749,-0.431,-11.048,-0.594
121.571468,-0.353,-10.978,-0.542
121.581187,-0.275,-10.939,-0.535
121.590906,-0.196,-10.862,-0.521
121.600625,-0.118,-10.694,-0.571
121.610344,-0.078,-10.455,-0.569
121.620063,0.078,-10.217,-0.567
121.629782,0.314,-9.778,-0.569
121.639501,0.628,-9.417,-0.585
121.64922,0.902,-9.126,-0.653
121.658939,1.059,-8.712,-0.74
121.668658,1.138,-8.53,-0.867
121.678377,1.177,-8.317,-0.949
121.688105,1.255,-8.11,-0.992
121.697833,1.255,-7.981,-1.049
121.707561,1.255,-7.787,-1.015
121.717289,1.098,-7.697,-1.078
121.727017,0.902,-7.574,-1.096
121.736745,0.706,-7.503,-1.044
121.746473,0.471,-7.497,-1.083
121.756201,0.353,-7.567,-1.135
121.765929,0.157,-7.644,-1.149
121.775657,0.078,-7.753,-1.208
121.785385,-0.039,-7.894,-1.312
121.795113,-0.157,-8.197,-1.405
121.804841,-0.235,-8.506,-1.46
121.814569,-0.314,-8.583,-1.474
121.824293,-0.235,-8.801,-1.592
121.834017,-0.196,-9.174,-1.737
121.843741,-0.078,-9.56,-1.805
121.853465,-0.078,-9.655,-1.942
121.863189,0.039,-9.828,-2.091
121.872913,0.078,-9.944,-2.112
121.882637,0.039,-9.828,-2.091
121.892361,0,-9.674,-2.064
121.902085,0.039,-9.59,-2.089
121.911809,0.196,-9.853,-2.176
121.921533,0.431,-10.805,-2.423
121.931257,0.549,-11.587,-2.282
121.940981,0.588,-11.487,-1.946
121.950705,0.628,-11.553,-1.798
121.960452,0.431,-11.698,-1.425
121.970199,0.196,-11.798,-1.085
121.979946,0.157,-12.391,-1.109
121.989693,0.157,-13.423,-1.132
121.99944,0.157,-14.043,-1.002
122.009187,0.314,-13.895,-0.937
122.018934,0.706,-13.148,-0.884
122.028681,1.02,-12.187,-0.914
122.038428,1.294,-11.289,-1.035
122.048175,1.569,-10.935,-1.012
122.057922,1.726,-10.766,-1.062
122.067669,1.961,-10.637,-1.119
122.077416,2.197,-10.732,-1.255
122.087169,2.236,-10.687,-1.287
122.096922,2.275,-10.346,-1.187
122.106675,2.275,-10.108,-1.185
122.116428,2.079,-10.048,-1.294
122.126181,1.765,-9.68,-1.348
122.135934,1.569,-9.508,-1.198
122.145687,1.255,-9.276,-1.158
122.15544,0.863,-8.812,-1.076
122.165193,0.549,-8.651,-1.087
122.174946,0.235,-8.419,-1.046
122.184699,0,-8.633,-0.965
122.194452,-0.275,-8.717,-0.94
122.204205,-0.51,-8.737,-0.824
122.213958,-0.667,-8.712,-0.74
122.223695,-0.745,-8.976,-0.826
122.233432,-0.863,-9.183,-0.783
122.243169,-0.824,-9.067,-0.762
122.252906,-0.785,-9.151,-0.737
122.262643,-0.706,-9.08,-0.685
122.27238,-0.628,-8.958,-0.703
122.282117,-0.667,-8.487,-0.66
122.291854,-0.667,-7.226,-0.358
122.301591,-0.51,-7.522,-1.167
122.311328,-0.628,-7.819,-1.06
122.321065,-0.667,-7.972,-1.326
122.330802,-0.549,-8.24,-1.612
122.340539,-0.353,-8.522,-1.821
122.350276,-0.196,-8.69,-1.771
122.360013,0.118,-8.662,-1.926
122.369751,0.431,-9.028,-2.11
122.379489,0.51,-8.912,-2.089
122.389227,0.667,-8.499,-2.176
122.398965,1.02,-8.46,-2.169
122.408703,1.334,-8.492,-2.214
122.418441,1.412,-8.672,-2.326
122.428179,1.334,-9.069,-2.555
122.437917,1.255,-9.251,-2.428
122.447655,1.138,-9.578,-2.605
122.457393,1.098,-9.94,-2.589
122.467131,1.059,-10.037,-2.487
122.476869,1.098,-10.785,-2.539
122.486607,1.059,-11.887,-2.614
122.49632,0.863,-12.65,-2.35
122.506033,0.471,-13.375,-2.08
122.515746,0,-13.057,-1.625
122.525459,-0.392,-12.605,-1.028
122.535172,-0.667,-12.055,-0.532
122.544885,-0.824,-12.025,-0.248
122.554598,-0.981,-12.15,0.009
122.564311,-1.059,-12.525,0.102
122.574024,-1.216,-12.727,0.345
122.583737,-1.687,-11.984,0.874
122.59345,-1.922,-11.58,1.065
122.603163,-2.236,-11.741,1.076
122.612876,-2.511,-12.109,1.131
122.622589,-2.628,-12.082,0.977
122.632311,-2.354,-11.693,0.806
122.642033,-2.118,-11.118,0.708
122.651755,-1.961,-11.328,0.313
122.661477,-2.001,-11.7,0.168
122.671199,-2.001,-11.448,0.092
122.680921,-1.883,-10.95,-0.019
122.690643,-1.687,-10.362,-0.194
122.700365,-1.373,-9.935,-0.358
122.710087,-0.981,-9.578,-0.574
122.719809,-0.706,-8.905,-0.774
122.729531,-0.51,-8.215,-0.851
122.739253,-0.471,-7.381,-1.062
122.748975,-0.431,-6.824,-1.283
122.758697,-0.471,-6.642,-1.41
122.768419,-0.51,-6.765,-1.392
122.778141,-0.392,-6.804,-1.399
122.787863,-0.275,-6.835,-1.444
122.797585,-0.157,-7.01,-1.356
122.807307,-0.235,-7.183,-1.506
122.817029,-0.314,-7.274,-1.442
122.826751,-0.392,-7.533,-1.328
122.836473,-0.392,-8.153,-1.199
122.846195,-0.431,-8.696,-1.055
122.855917,-0.275,-9.046,-0.878
122.865639,0.078,-9.158,-0.699
122.875361,0.353,-8.883,-0.451
122.885083,0.628,-8.833,-0.283
122.894778,0.431,-8.835,-0.044
122.904473,0.353,-9.505,-0.083
122.914168,0.157,-9.926,0.042
122.923863,0.196,-10.176,-0.121
122.933558,0.628,-10.394,-0.239
122.943253,1.059,-10.335,-0.349
122.952948,1.569,-10.314,-0.464
122.962643,1.765,-10.498,-0.776
122.972338,1.804,-10.994,-0.903
122.982033,1.491,-11.285,-0.835
122.991728,1.138,-11.169,-0.814
123.001423,0.824,-10.814,-0.792
123.011118,0.706,-10.923,-0.851
123.020813,0.667,-11.846,-0.814
123.030481,0.628,-12.323,-0.819
123.040149,0.785,-12.505,-0.691
123.049817,0.824,-12.364,-0.587
123.059485,0.706,-11.439,-0.185
123.069153,0.706,-10.923,-0.173
123.078821,0.588,-10.821,-0.076
123.088489,0.628,-11.35,-0.01
123.098157,0.863,-11.603,0.065
123.107825,1.216,-11.668,0.213
123.117493,1.491,-11.612,0.342
123.127161,1.648,-11.632,0.458
123.136829,1.726,-11.807,0.547
123.146497,1.922,-11.782,0.631
123.156165,2.118,-11.775,0.592
123.165843,2.275,-11.891,0.572
123.175521,2.354,-11.821,0.624
123.185199,2.354,-11.491,0.563
123.194877,2.236,-11.13,0.547
123.204555,2.118,-10.878,0.472
123.214233,1.922,-10.639,0.474
123.223911,1.765,-10.387,0.399
123.233589,1.648,-10.148,0.401
123.243267,1.451,-9.812,0.301
123.252945,1.294,-9.598,0.219
123.262623,1.059,-9.262,0.119
123.272301,0.863,-8.926,0.019
123.281979,0.628,-8.558,-0.035
123.291647,0.471,-8.333,0.044
123.301315,0.235,-8.028,-0.101
123.310983,-0.039,-7.828,-0.106
123.320651,-0.039,-7.608,-0.226
123.330319,0.196,-7.401,-0.269
123.339987,0.628,-7.342,-0.378
123.349655,1.02,-7.226,-0.358
123.359323,1.098,-7.219,-0.397
123.368991,0.785,-7.335,-0.417
123.378659,0.471,-7.412,-0.431
123.388327,0.275,-7.458,-0.399
123.397995,0.118,-7.419,-0.392
123.407663,0.039,-7.419,-0.392
123.417331,-0.039,-7.419,-0.392
123.426991,-0.039,-7.476,-0.522
123.436651,0,-7.676,-0.517
123.446311,0.039,-7.76,-0.492
123.455971,0.275,-8.262,-0.581
123.465631,0.353,-8.999,-0.471
123.475291,0.196,-9.739,-0.562
123.484951,-0.078,-10.648,-0.603
123.494611,-0.275,-11.621,-0.735
123.504271,-0.431,-12.253,-0.766
123.513931,-0.588,-12.4,-0.832
123.523591,-0.471,-12.278,-0.85
123.533251,-0.275,-12.232,-0.882
123.542911,0,-12.457,-0.962
123.552571,0.039,-13.139,-1.162
123.562217,0.078,-14.605,-1.659
123.571863,-0.353,-14.993,-1.489
123.581509,-0.941,-13.307,-1.112
123.591155,-1.177,-11.212,-1.021
123.600801,-1.334,-9.903,-0.989
123.610447,-1.451,-9.337,-0.81
123.620093,-1.334,-9.08,-0.685
123.629739,-0.981,-9.28,-0.68
123.639385,-0.863,-9.592,-0.496
123.649031,-1.334,-9.635,-0.026
123.658677,-1.883,-9.689,0.283
123.668323,-2.236,-10.612,0.32
123.677969,-2.589,-11.839,0.502
123.687615,-2.942,-12.532,0.818
123.69727,-3.02,-12.573,1.049
123.706925,-2.981,-12.027,1.345
123.71658,-2.824,-11.577,1.504
123.726235,-2.55,-11.43,1.57
123.73589,-2.197,-11.359,1.622
123.745545,-1.804,-11.339,1.506
123.7552,-1.334,-11.28,1.397
123.764855,-0.863,-11.239,1.165
123.77451,-0.51,-11.264,1.081
123.784165,-0.431,-10.991,0.89
123.79382,-0.431,-10.564,0.726
123.803475,-0.431,-10.053,0.538
123.81313,-0.275,-9.387,0.376
123.822803,-0.078,-8.78,0.324
123.832476,0,-8.192,0.149
123.842149,-0.196,-7.655,0.044
123.851822,-0.745,-7.056,0.031
123.861495,-1.412,-6.674,-0.101
123.871168,-1.883,-6.544,-0.158
123.880841,-2.197,-6.531,-0.235
123.890514,-2.432,-6.633,-0.333
123.900187,-2.55,-6.806,-0.483
123.90986,-2.471,-7.063,-0.608
123.919533,-2.314,-7.365,-0.701
123.929206,-2.001,-7.54,-0.612
123.938879,-1.726,-7.592,-0.542
123.948552,-1.373,-7.946,-0.565
123.958231,-1.098,-8.655,-0.61
123.96791,-0.863,-9.23,-0.512
123.977589,-0.863,-9.792,-0.492
123.987268,-0.863,-10.41,-0.601
123.996947,-0.981,-10.912,-0.689
124.006626,-1.098,-11.098,-0.762
124.016305,-1.138,-10.962,-0.857
124.025984,-1.216,-10.703,-0.971
124.035663,-1.294,-10.56,-1.105
124.045342,-1.255,-10.855,-1.237
124.055021,-1.216,-10.978,-1.219
124.0647,-1.177,-10.985,-1.18
124.074379,-1.177,-11.262,-1.189
124.084058,-1.177,-12.105,-1.378
124.093766,-1.098,-12.905,-1.359
124.103474,-1.373,-12.514,-1.091
124.113182,-1.294,-12.434,-1.316
124.12289,-1.294,-12.732,-1.209
124.132598,-1.373,-11.878,-0.86
124.142306,-1.294,-10.698,-0.771
124.152014,-1.059,-10.292,-0.819
124.161722,-0.902,-10.126,-0.63
124.17143,-0.745,-9.944,-0.758
124.181138,-0.51,-10.489,-1.053
124.190846,-0.353,-11.282,-1.073
124.200554,-0.275,-11.507,-1.153
124.210262,-0.118,-11.564,-1.282
124.219987,0,-11.319,-1.319
124.229712,0.353,-11.003,-1.303
124.239437,0.706,-10.796,-1.346
124.249162,0.981,-10.789,-1.385
124.258887,1.177,-10.642,-1.319
124.268612,1.334,-10.455,-1.246
124.278337,1.334,-10.244,-1.089
124.288062,1.255,-10.148,-0.953
124.297787,1.177,-10.092,-0.823
124.307512,1.138,-10.105,-0.746
124.317237,1.059,-9.912,-0.712
124.326962,0.941,-9.687,-0.633
124.336687,0.745,-9.533,-0.605
124.346412,0.588,-9.378,-0.578
124.356145,0.431,-9.185,-0.544
124.365878,0.275,-9.042,-0.678
124.375611,0.118,-8.88,-0.69
124.385344,-0.078,-8.783,-0.792
124.395077,-0.196,-8.569,-0.874
124.40481,-0.275,-8.201,-0.928
124.414543,-0.353,-7.872,-0.99
124.424276,-0.431,-7.587,-1.019
124.434009,-0.549,-7.406,-1.146
124.443742,-0.628,-7.392,-1.224
124.453475,-0.745,-7.385,-1.262
124.463208,-0.863,-7.519,-1.406
124.472941,-1.02,-7.667,-1.471
124.482674,-1.177,-7.808,-1.576
124.49239,-1.334,-7.878,-1.628
124.502106,-1.373,-7.903,-1.712
124.511822,-1.255,-8.181,-1.721
124.521538,-1.138,-8.451,-1.769
124.531254,-0.902,-8.701,-1.933
124.54097,-0.706,-8.881,-2.044
124.550686,-0.51,-9.106,-2.123
124.560402,-0.431,-9.362,-2.248
124.570118,-0.275,-9.696,-2.387
124.579834,-0.196,-9.876,-2.498
124.58955,-0.039,-10.087,-2.655
124.599266,0.157,-10.274,-2.728
124.608982,0.353,-10.305,-2.773
124.618698,0.471,-10.203,-2.675
124.628403,0.431,-9.851,-2.414
124.638108,0.353,-9.505,-2.114
124.647813,0.118,-9.54,-1.921
124.657518,0,-10.423,-1.878
124.667223,-0.157,-12.278,-2.205
124.676928,-0.314,-14.018,-2.273
124.686633,-0.667,-14.105,-2.009
124.696338,-0.667,-14.039,-2.157
124.706043,-0.785,-13.514,-1.746
124.715748,-1.02,-12.182,-1.391
124.725453,-0.941,-11.364,-1.287
124.735158,-0.981,-10.567,-1.067
124.744863,-1.02,-10.205,-1.082
124.754568,-1.177,-10.255,-1.251
124.764291,-1.53,-10.121,-1.107
124.774014,-1.883,-9.851,-1.06
124.783737,-2.197,-9.671,-0.948
124.79346,-2.511,-10.085,-0.862
124.803183,-2.864,-10.776,-0.785
124.812906,-3.138,-11.048,-0.594
124.822629,-3.217,-11.139,-0.53
124.832352,-3.099,-11.223,-0.505
124.842075,-2.864,-11.398,-0.417
124.851798,-2.55,-11.296,-0.319
124.861521,-2.079,-11.244,-0.389
124.871244,-1.569,-11.166,-0.376
124.880967,-1.216,-10.896,-0.328
124.890681,-0.863,-10.682,-0.41
124.900395,-0.745,-10.469,-0.492
124.910109,-0.785,-10.107,-0.508
124.919823,-0.863,-10.01,-0.61
124.929537,-0.941,-10.003,-0.648
124.939251,-1.059,-9.796,-0.692
124.948965,-0.981,-9.428,-0.746
124.958679,-0.941,-9.014,-0.833
124.968393,-0.824,-8.64,-0.926
124.978107,-0.785,-8.317,-0.949
124.987821,-0.785,-8.065,-1.024
124.997535,-0.785,-7.858,-1.067
125.007249,-0.745,-7.728,-1.124
125.016963,-0.667,-7.631,-1.226
125.026674,-0.392,-7.662,-1.271
125.036385,-0.196,-7.694,-1.317
125.046096,0.039,-7.828,-1.46
125.055807,0.196,-7.976,-1.526
125.065518,0.235,-7.969,-1.565
125.075229,0.196,-7.86,-1.505
125.08494,0.039,-7.758,-1.408
125.094651,-0.118,-7.856,-1.305
125.104362,-0.196,-8.467,-1.453
125.114073,-0.392,-8.842,-1.36
125.123784,-0.51,-9.221,-1.467
125.133495,-0.628,-9.478,-1.592
125.143206,-0.706,-9.844,-1.776
125.152917,-0.706,-10.133,-1.946
125.162608,-0.628,-10.26,-2.128
125.172299,-0.471,-10.549,-2.298
125.18199,-0.51,-10.394,-2.271
125.191681,-0.471,-10.278,-2.25
125.201372,-0.471,-10.355,-2.264
125.211063,-0.392,-11.417,-2.571
125.220754,-0.314,-13.046,-2.818
125.230445,-0.588,-12.939,-2.52
125.240136,-0.628,-12.257,-2.321
125.249827,-0.588,-11.871,-2.253
125.259518,-0.785,-11.416,-1.894
125.269209,-1.138,-10.319,-1.342
125.2789,-1.255,-9.424,-1.223
125.288591,-1.177,-9.694,-1.271
125.29829,-1.177,-10.442,-1.323
125.307989,-1.177,-10.964,-1.296
125.317688,-1.098,-11.041,-1.31
125.327387,-1.098,-10.771,-1.262
125.337086,-1.138,-10.514,-1.137
125.346785,-1.02,-10.405,-1.078
125.356484,-0.667,-10.605,-1.073
125.366183,-0.235,-10.678,-0.887
125.375882,0.235,-10.93,-0.812
125.385581,0.431,-11.073,-0.678
125.39528,0.431,-11.178,-0.537
125.404979,0.275,-10.871,-0.244
125.414678,0.118,-10.8,-0.192
125.424381,0,-10.93,-0.135
125.434084,-0.118,-10.905,-0.051
125.443787,-0.196,-10.757,0.015
125.45349,-0.392,-10.635,-0.003
125.463193,-0.431,-10.539,0.133
125.472896,-0.471,-10.346,0.167
125.482599,-0.471,-10.069,0.176
125.492302,-0.353,-9.816,0.101
125.502005,-0.235,-9.371,0.06
125.511708,-0.078,-8.996,-0.033
125.521411,0,-8.705,-0.101
125.531114,0.118,-8.337,-0.156
125.540817,0.157,-8.015,-0.178
125.55052,0.314,-7.992,-0.533
125.56021,0.118,-7.878,-0.274
125.5699,0.118,-7.801,-0.26
125.57959,0.039,-7.896,-0.397
125.58928,0.039,-7.987,-0.333
125.59897,0.157,-7.903,-0.358
125.60866,0.471,-7.728,-0.447
125.61835,0.902,-7.767,-0.453
125.62804,1.098,-7.799,-0.499
125.63773,1.059,-7.992,-0.533
125.64742,0.706,-8.16,-0.483
125.65711,0.353,-8.276,-0.503
125.6668,0.196,-8.746,-0.546
125.67649,0.392,-9.119,-0.692
125.68618,0.745,-9.421,-0.785
125.695884,1.255,-9.248,-0.635
125.705588,1.491,-8.312,-0.749
125.715292,1.844,-9.019,-1.033
125.724996,1.922,-9.851,-1.06
125.7347,1.687,-10.528,-1.06
125.744404,1.687,-10.816,-1.23
125.754108,1.844,-11.216,-1.221
125.763812,1.961,-11.223,-1.182
125.773516,2.001,-10.946,-1.173
125.78322,2.079,-10.844,-1.076
125.792924,2.197,-10.351,-0.71
125.802628,1.922,-10.314,-0.464
125.812332,1.883,-10.923,-0.851
125.82205,1.648,-11.873,-0.66
125.831768,1.491,-11.843,-0.376
125.841486,1.608,-11.541,-0.282
125.851204,1.412,-11.63,-0.457
125.860922,1.177,-11.991,-0.441
125.87064,0.863,-12.237,-0.405
125.880358,0.745,-12.198,-0.398
125.890076,0.667,-11.457,-0.307
125.899794,0.902,-11.105,-0.723
125.909512,1.059,-11.26,-0.751
125.91923,0.941,-11.535,-0.998
125.928948,0.706,-11.007,-0.826
125.938666,0.392,-10.601,-0.873
125.948384,0.078,-10.523,-0.86
125.9581,-0.275,-10.428,-0.723
125.967816,-0.275,-10.273,-0.696
125.977532,-0.118,-10.273,-0.696
125.987248,0.039,-10.101,-0.546
125.996964,0.314,-10.069,-0.501
126.00668,0.471,-10.178,-0.56
126.016396,0.785,-10.171,-0.598
126.026112,1.059,-10.23,-0.489
126.035828,1.255,-9.935,-0.358
126.045544,1.294,-9.594,-0.258
126.05526,1.412,-9.335,-0.371
126.064976,1.491,-9.619,-0.342
126.074692,1.53,-9.678,-0.233
126.084408,1.53,-9.517,-0.244
126.094145,1.608,-9.496,-0.36
126.103882,1.569,-9.317,-0.249
126.113619,1.569,-9.11,-0.292
126.123356,1.373,-8.749,-0.308
126.133093,1.177,-8.517,-0.267
126.14283,0.981,-8.549,-0.312
126.152567,0.863,-8.394,-0.285
126.162304,0.824,-8.085,-0.231
126.172041,0.902,-8.058,-0.385
126.181778,0.863,-8.046,-0.224
126.191515,0.902,-8.117,-0.276
126.201252,0.981,-8.124,-0.237
126.210989,0.941,-8.208,-0.212
126.22071,0.981,-8.33,-0.194
126.230431,0.667,-8.299,-0.149
126.240152,0.392,-8.351,-0.078
126.249873,0.235,-8.228,-0.097
126.259594,0.275,-8.349,-0.317
126.269315,0.314,-8.515,-0.506
126.279036,0.392,-8.849,-0.644
126.288757,0.353,-9.274,-0.719
126.298478,0.275,-9.498,-0.799
126.308199,0.196,-10.096,-1.023
126.31792,0.118,-10.592,-1.151
126.327641,-0.157,-11.385,-1.171
126.337362,-0.471,-11.9,-1.182
126.347083,-0.667,-11.914,-1.105
126.356804,-0.745,-11.485,-0.83
126.366531,-0.745,-11.066,-0.717
