Time,GyroscopeX,GyroscopeY,GyroscopeZ
90.010687,2.03,-49.281,24.718
90.021393,-4.34,-48.766,23.814
90.032099,-8.12,-48.186,23.347
90.042805,-9.45,-48.949,23.639
90.053511,-9.24,-51.616,25.87
90.064217,-8.68,-55.278,28.494
90.074923,-9.52,-57.905,28.884
90.085629,-11.13,-57.776,27.343
90.096335,-14.28,-56.475,23.592
90.107041,-18.48,-52.733,18.494
90.117717,-21.28,-48.399,11.653
90.128393,-24.64,-44.572,4.864
90.139069,-27.51,-41.333,-1.815
90.149745,-28.28,-38.771,-7.476
90.160421,-27.44,-36.979,-11.994
90.171097,-25.48,-35.706,-15.181
90.181773,-22.82,-34.766,-17.29
90.192449,-19.67,-34.515,-18.312
90.203125,-16.94,-34.381,-19.07
90.213801,-14.42,-33.862,-19.192
90.224477,-11.13,-34.044,-19.366
90.235153,-8.47,-34.778,-19.638
90.245829,-4.76,-35.845,-18.83
90.256479,-0.98,-37.718,-17.881
90.267129,2.03,-40.775,-15.862
90.277779,3.29,-44.578,-12.836
90.288429,1.61,-47.619,-10.102
90.299079,-2.94,-50.397,-8.46
90.309729,-10.57,-53.3,-5.702
90.320379,-18.41,-55.372,-4.433
90.331029,-26.67,-56.916,-2.928
90.341679,-36.12,-57.695,-0.933
90.352329,-45.36,-57.532,0.162
90.362979,-52.08,-57.893,0.596
90.373629,-56.21,-57.203,1.926
90.384269,-58.24,-55.788,3.171
90.394909,-57.54,-54.227,3.588
90.405549,-55.16,-52.674,3.649
90.416189,-51.17,-50.74,3.563
90.426829,-45.78,-48.635,2.513
90.437469,-40.39,-46.608,1.093
90.448109,-33.95,-44.548,-0.107
90.458749,-27.93,-42.866,-1.588
90.469389,-22.61,-41.219,-2.861
90.480029,-16.59,-40.579,-3.672
90.490669,-11.9,-40.579,-3.672
90.501309,-8.89,-41.244,-3.932
90.511967,-7.35,-41.787,-4.88
90.522625,-8.47,-41.686,-5.858
90.533283,-10.15,-42.007,-7.265
90.543941,-12.25,-42.27,-8.591
90.554599,-13.51,-42.36,-10.099
90.565257,-14.42,-42.664,-10.792
90.575915,-15.82,-43.013,-10.428
90.586573,-17.43,-44.071,-9.264
90.597231,-20.23,-44.829,-8.189
90.607889,-23.52,-44.991,-6.867
90.618547,-26.39,-44.776,-5.265
90.629205,-27.58,-44.666,-4.677
90.639862,-28.35,-43.892,-7.455
90.650519,-29.68,-41.188,-12.309
90.661176,-31.64,-37.199,-18.003
90.671833,-34.93,-33.299,-23.997
90.68249,-36.68,-30.234,-28.077
90.693147,-37.94,-28.231,-30.567
90.703804,-37.66,-27.453,-32.562
90.714461,-36.54,-27.376,-33.401
90.725118,-34.23,-26.893,-32.108
90.735775,-31.64,-26.929,-29.484
90.746432,-28.35,-26.422,-27.12
90.757089,-25.06,-25.996,-24.699
90.767746,-21.07,-26.166,-21.318
90.778422,-17.71,-27.223,-16.528
90.789098,-15.4,-28.91,-10.997
90.799774,-13.51,-31.5,-4.772
90.81045,-12.32,-34.605,1.148
90.821126,-10.92,-37.118,6.534
90.831802,-10.92,-39.218,10.784
90.842478,-11.97,-41.501,13.651
90.853154,-12.74,-43.236,15.833
90.86383,-14.35,-45.296,17.033
90.874506,-15.96,-46.699,16.928
90.885182,-17.85,-46.813,15.557
90.895858,-19.25,-46.708,12.946
90.90651,-20.51,-45.698,9.641
90.917162,-21.21,-44.332,6.328
90.927814,-21.98,-43.193,3.899
90.938466,-22.61,-41.953,1.701
90.949118,-22.61,-40.408,0.196
90.95977,-21.56,-38.559,-1.823
90.970422,-20.51,-36.812,-4.074
90.981074,-19.81,-34.367,-5.847
90.991726,-19.39,-31.541,-7.765
91.002378,-19.04,-29.063,-9.318
91.01303,-17.85,-26.777,-10.195
91.023682,-17.22,-24.433,-10.99
91.034334,-17.01,-22.778,-10.698
91.044968,-16.52,-21.087,-9.405
91.055602,-16.1,-20.025,-7.369
91.066236,-15.75,-18.508,-5.893
91.07687,-16.38,-16.675,-5.002
91.087504,-17.01,-14.55,-4.556
91.098138,-17.36,-12.603,-3.502
91.108772,-17.99,-10.847,-1.771
91.119406,-17.92,-9.769,-0.23
91.13004,-18.13,-8.807,1.575
91.140674,-17.01,-7.639,2.207
91.151308,-16.1,-6.954,2.754
91.161942,-14.63,-6.151,3.038
91.172576,-12.74,-5.75,3.18
91.183218,-11.76,-6.179,3.602
91.19386,-10.15,-7.108,4.433
91.204502,-8.05,-8,5.058
91.215144,-5.67,-8.519,5.179
91.225786,-2.87,-9.415,5.021
91.236428,0.49,-9.346,5.034
91.24707,4.55,-9.184,4.92
91.257712,9.03,-8.543,5.317
91.268354,13.37,-6.869,4.689
91.278996,17.64,-4.934,4.603
91.289638,23.24,-3.308,5.458
91.30028,26.18,-2.205,5.653
91.310952,27.93,-1.268,6.387
91.321624,26.6,0.256,4.594
91.332296,23.45,1.501,1.971
91.342968,21.35,1.306,3.074
91.35364,21.63,-0.895,5.884
91.364312,25.41,-4.293,6.209
91.374984,29.82,-8.397,5.698
91.385656,36.19,-11.353,7.949
91.396328,44.52,-13.177,9.831
91.407,52.5,-14.872,8.964
91.417672,59.01,-14.954,5.395
91.428344,65.31,-13.442,0.046
91.439016,70.77,-10.966,-6.34
91.449724,74.62,-8.169,-13.737
91.460432,75.95,-5.42,-19.65
91.47114,74.27,-3.012,-23.632
91.481848,69.23,-1.394,-25.55
91.492556,61.32,-0.494,-24.61
91.503264,51.24,-0.664,-22.436
91.513972,42,-0.53,-19.569
91.52468,33.67,-0.481,-17.428
91.535388,26.46,-0.286,-14.906
91.546096,21.07,0.201,-12.83
91.556804,16.31,-0.058,-9.748
91.567512,12.67,-0.114,-6.204
91.578202,9.24,-0.592,-3.09
91.588892,6.79,-1.468,-0.543
91.599582,5.11,-2.352,1.647
91.610272,4.76,-2.891,2.689
91.620962,4.41,-3.536,2.717
91.631652,4.34,-3.702,2.048
91.642342,4.2,-3.67,1.059
91.653032,5.53,-3.986,-0.774
91.663722,5.95,-4.866,-2.635
91.674412,7.63,-5.913,-3.957
91.685102,10.29,-6.347,-5.526
91.695792,12.74,-7.6,-6.884
91.706482,15.82,-8.314,-8.076
91.717173,18.34,-8.577,-8.194
91.727864,19.39,-8.78,-7.448
91.738555,18.13,-9.384,-6.844
91.749246,16.66,-10.353,-5.38
91.759937,13.93,-10.296,-4.09
91.770628,12.32,-10.081,-3.697
91.781319,10.36,-9.874,-3.66
91.79201,9.52,-9.457,-4.013
91.802701,8.96,-9.197,-3.47
91.813392,9.66,-9.311,-3.632
91.824083,9.8,-8.776,-4.248
91.834774,8.68,-8.889,-4.411
91.845479,7.98,-8.204,-5.072
91.856184,6.58,-8.618,-5.145
91.866889,6.09,-9.189,-4.321
91.877594,5.88,-10.637,-2.16
91.888299,8.05,-12.644,-0.452
91.899004,7.49,-14.858,-2.407
91.909709,4.2,-16.31,-4.653
91.920414,2.59,-15.406,-7.763
91.931119,1.75,-13.659,-16.056
91.941824,0.14,-12.225,-24.19
91.952529,0.49,-10.421,-27.568
91.963234,0.7,-8.917,-29.649
91.973932,2.31,-8.317,-32.244
91.98463,3.01,-6.469,-35.472
91.995328,4.9,-2.56,-37.484
92.006026,8.54,2.119,-40.639
92.016724,12.88,6.315,-46.297
92.027422,17.01,9.969,-48.069
92.03812,20.44,12.969,-46.545
92.048818,22.4,15.212,-42.738
92.059516,22.89,15.226,-35.556
92.070214,22.82,13.877,-24.279
92.080912,21.35,11.798,-11.283
92.09161,18.62,8.909,1.073
92.102308,16.73,5.922,11.564
92.113011,13.93,3.303,19.561
92.123714,11.34,1.224,25.307
92.134417,8.75,-0.515,29.123
92.14512,5.25,-3.155,30.79
92.155823,0.91,-5.052,30.669
92.166526,-2.66,-7.031,29.396
92.177229,-5.95,-9.416,28.407
92.187932,-8.54,-11.281,26.087
92.198635,-10.43,-13.528,23.914
92.209338,-11.83,-14.919,21.323
92.220041,-12.53,-16.011,18.643
92.230744,-12.39,-15.999,16.157
92.241445,-12.6,-15.809,13.063
92.252146,-12.11,-15.363,10.938
92.262847,-11.69,-14.297,8.923
92.273548,-10.71,-12.711,7.994
92.284249,-9.59,-11.037,6.157
92.29495,-9.52,-9.451,5.228
92.305651,-7.63,-7.578,5.487
92.316352,-6.09,-5.583,5.057
92.327053,-4.13,-3.219,4.55
92.337754,-2.45,-1.26,4.327
92.348455,-0.49,0.962,4.221
92.359156,0.7,3.403,4.083
92.369857,1.61,5.499,3.884
92.380577,2.59,7.478,3.949
92.391297,2.73,9.376,4.07
92.402017,2.31,10.986,4.212
92.412737,1.96,12.458,4.329
92.423457,1.75,13.471,4.223
92.434177,1.96,14.53,4.268
92.444897,-0.21,14.951,4.698
92.455617,-3.22,15.434,5.991
92.466337,-6.58,15.256,6.599
92.477057,-10.71,15.24,7.094
92.487777,-15.05,14.036,9.085
92.498497,-19.46,12.706,10.983
92.509241,-23.59,11.534,11.985
92.519985,-26.67,10.31,12.48
92.530729,-29.54,9.186,11.997
92.541473,-31.22,9.162,10.927
92.552217,-32.48,8.201,10.331
92.562961,-32.27,7.572,9.865
92.573705,-31.29,7.353,8.689
92.584449,-30.17,7.88,7.716
92.595193,-28.07,7.953,7.302
92.605937,-25.06,8.14,8.259
92.616681,-20.09,8.136,9.893
92.627425,-15.68,7.613,9.232
92.638169,-14.42,7.479,8.782
92.64892,-13.86,8.606,10.047
92.659671,-12.74,9.449,8.49
92.670422,-12.53,10.057,3.835
92.681173,-10.85,10.543,1.077
92.691924,-9.38,10.693,-0.176
92.702675,-8.54,9.493,2.598
92.713426,-4.34,6.116,9.253
92.724177,1.68,2.589,13.535
92.734928,6.58,-0.05,16.411
92.745679,12.39,-0.675,19.144
92.75643,17.85,-0.136,16.893
92.767181,21.91,1.956,9.87
92.777924,24.22,5.349,1.512
92.788667,25.83,8.734,-5.994
92.79941,25.55,11.693,-12.296
92.810153,22.26,13.331,-16.343
92.820896,16.94,14.307,-18.659
92.831639,10.22,16.116,-18.838
92.842382,2.17,16.663,-18.315
92.853125,-7.14,16.737,-17.52
92.863868,-16.59,16.425,-16.153
92.874611,-24.78,16.23,-13.842
92.885354,-31.5,15.355,-11.295
92.896097,-37.1,14.775,-8.412
92.90684,-40.32,13.912,-5.934
92.917583,-42,12.87,-4.057
92.928326,-43.26,11.65,-2.779
92.93908,-41.79,9.821,-1.68
92.949834,-39.13,7.619,-0.078
92.960588,-36.19,5.775,1.516
92.971342,-32.34,3.703,2.785
92.982096,-27.51,1.375,4.294
92.99285,-22.26,-1.106,5.065
93.003604,-16.94,-2.927,5.312
93.014358,-12.88,-5.469,5.22
93.025112,-9.66,-7.631,4.981
93.035866,-7.49,-9.914,4.223
93.046625,-6.44,-11.228,3.209
93.057384,-6.58,-12.242,2.106
93.068143,-7.14,-12.834,1.433
93.078902,-8.12,-13.337,1.06
93.089661,-10.08,-13.823,1.401
93.10042,-11.97,-14.184,1.835
93.111179,-13.65,-14.748,1.807
93.121938,-15.82,-15.709,2.419
93.132697,-17.5,-16.053,3.567
93.143456,-18.2,-16.082,4.13
93.154215,-18.76,-15.871,3.741
93.164974,-18.13,-14.817,3.003
93.17571,-18.27,-12.834,1.433
93.186446,-17.36,-9.955,0.022
93.197182,-15.12,-8.053,-1.491
93.207918,-13.58,-6.018,-3.762
93.218654,-11.41,-3.962,-4.537
93.22939,-8.89,-2.316,-4.602
93.240126,-6.16,-0.633,-4.874
93.250862,-4.48,0.717,-5.276
93.261598,-3.99,2.651,-5.361
93.272334,-5.32,4.216,-6.578
93.28307,-8.33,5.777,-7.369
93.293806,-13.02,7.436,-7.503
93.304542,-17.92,8.758,-6.132
93.315265,-23.31,8.677,-4.867
93.325988,-28.35,7.822,-3.241
93.336711,-32.55,6.618,-1.25
93.347434,-39.2,4.87,-0.207
93.358157,-45.78,4.031,0.924
93.36888,-52.78,3.633,-0.852
93.379603,-58.8,3.604,-6.33
93.390326,-62.65,4.888,-14.42
93.401049,-64.54,6.651,-23.208
93.411772,-61.39,8.556,-32.397
93.422495,-54.18,9.041,-39.988
93.433218,-43.68,8.716,-44.594
93.443925,-31.15,7.812,-45.109
93.454632,-17.64,6.089,-41.788
93.465339,-4.34,2.785,-35.546
93.476046,7.28,0.235,-28.746
93.486753,15.75,-2.404,-22.245
93.49746,22.19,-3.948,-17.116
93.508167,25.69,-4.126,-14.091
93.518874,26.81,-4.048,-11.305
93.529581,27.02,-3.646,-7.538
93.540288,24.78,-4.088,-3.422
93.550995,21.21,-5.316,1.124
93.561702,17.29,-6.84,6.542
93.572409,12.88,-7.966,11.319
93.58311,9.1,-9.32,15.771
93.593811,4.83,-11.003,18.46
93.604512,1.61,-12.272,20.013
93.615213,-0.77,-13.748,20.321
93.625914,-2.73,-15.143,20.573
93.636615,-5.11,-15.593,19.499
93.647316,-5.95,-15.021,16.259
93.658017,-6.65,-13.943,11.757
93.668718,-6.65,-11.536,6.567
93.679419,-4.48,-8.892,2.057
93.69012,-0.7,-5.373,-2.582
93.700821,4.69,-1.339,-6.918
93.711482,10.15,2.602,-9.919
93.722143,13.93,5.197,-10.527
93.732804,16.59,7.026,-9.21
93.743465,15.96,8.149,-7.519
93.754126,12.25,9.241,-4.839
93.764787,7.28,10.871,-1.993
93.775448,0.77,12.404,-1.011
93.786109,-5.81,14.18,-1.409
93.79677,-11.76,16.017,-2.151
93.807431,-17.22,17.055,-2.395
93.818092,-20.72,17.704,-1.641
93.828753,-23.45,16.824,0.123
93.839414,-25.27,15.215,3.607
93.850085,-27.79,13.005,7.269
93.860756,-30.66,10.8,10.505
93.871427,-33.67,9.093,12.123
93.882098,-36.05,7.22,13.072
93.892769,-35.28,5.282,16
93.90344,-29.47,2.533,18.288
93.914111,-24.08,-0.44,16.2
93.924782,-21.91,-2.714,18.215
93.935453,-19.32,-4.574,27.554
93.946124,-15.33,-7.327,32.684
93.956795,-11.2,-10.466,28.719
93.967466,-8.26,-11.492,26.477
93.978112,-7.14,-10.62,26.773
93.988758,-8.89,-10.341,23.979
93.999404,-7.84,-11.618,22.758
94.01005,-4.76,-14.295,23.424
94.020696,1.05,-17.218,22.268
94.031342,5.11,-19.388,18.047
94.041988,7.35,-19.251,14.447
94.052634,9.24,-17.974,10.833
94.06328,11.06,-16.738,6.644
94.073926,12.67,-16.787,4.503
94.084572,12.81,-16.43,4.495
94.095218,10.08,-16.296,4.945
94.105864,6.93,-15.911,5.582
94.116499,2.59,-14.966,5.464
94.127134,-1.96,-13.186,4.641
94.137769,-7.07,-11.114,3.371
94.148404,-12.11,-8.564,2.613
94.159039,-16.94,-6.881,2.341
94.169674,-20.79,-5.681,3.192
94.180309,-23.8,-4.509,4.607
94.190944,-26.67,-3.345,5.665
94.201579,-28.7,-2.574,5.73
94.212214,-30.1,-2.286,5.71
94.222849,-30.87,-1.601,6.257
94.233484,-31.64,-1.098,6.63
94.2441,-32.06,-0.972,6.723
94.254716,-32.34,-0.705,7.623
94.265332,-31.78,-1.264,8.378
94.275948,-30.94,-1.929,9.327
94.286564,-29.33,-2.419,10.093
94.29718,-27.72,-3.275,10.511
94.307796,-25.9,-3.867,11.046
94.318412,-23.52,-4.759,11.671
94.329028,-19.88,-6.178,12.06
94.339644,-16.59,-7.95,12.032
94.35026,-14,-9.532,11.327
94.360876,-11.9,-11.065,10.346
94.371492,-11.06,-11.86,9.211
94.382102,-10.08,-13.032,7.796
94.392712,-8.75,-13.77,5.533
94.403322,-7.7,-13.937,2.447
94.413932,-7.21,-13.929,-0.821
94.424542,-7.56,-13.163,-2.747
94.435152,-6.51,-12.595,-3.145
94.445762,-6.09,-13.35,-3.704
94.456372,-5.11,-14.051,-3.757
94.466982,-6.09,-14.38,-5.521
94.477592,-6.23,-13.508,-6.433
94.488202,-5.25,-12.584,-8.047
94.498812,-3.57,-11.769,-11.458
94.509439,-2.17,-10.752,-15.614
94.520066,-0.84,-9.114,-19.661
94.530693,2.52,-7.144,-23.579
94.54132,6.16,-5.109,-28.267
94.551947,8.19,-2.628,-32.663
94.562574,9.8,0.376,-35.189
94.573201,9.24,2.128,-35.449
94.583828,9.45,1.905,-32.574
94.594455,9.59,0.937,-27.485
94.605082,8.89,-0.157,-21.281
94.615709,7.21,-0.951,-15.166
94.626336,5.18,-1.173,-11.082
94.637001,1.4,-0.695,-8.154
94.647666,-1.96,-0.252,-6.228
94.658331,-6.51,0.015,-5.328
94.668996,-12.04,-0.143,-4.432
94.679661,-17.57,-0.986,-2.875
94.690326,-21.49,-2.295,-0.689
94.700991,-24.22,-3.739,1.047
94.711656,-25.69,-4.829,1.992
94.722321,-26.67,-5.247,2.345
94.732986,-25.27,-4.631,1.671
94.743651,-24.15,-3.001,-0.316
94.754316,-21.91,-0.674,-3.033
94.764973,-19.46,2.452,-6.249
94.77563,-17.15,6.685,-10.905
94.786287,-15.96,11.656,-14.506
94.796944,-15.75,16.25,-15.971
94.807601,-14.77,20.281,-16.255
94.818258,-14.28,23.249,-14.95
94.828915,-12.95,25.626,-11.901
94.839572,-11.55,27.228,-8.491
94.850229,-10.92,28.765,-5.519
94.860886,-10.99,29.921,-2.401
94.871543,-12.04,31.138,0.373
94.8822,-12.67,32.023,1.808
94.892857,-13.93,32.059,2.81
94.903505,-15.89,31.707,4.809
94.914153,-17.85,30.693,7.331
94.924801,-20.72,28.532,10.717
94.935449,-21.07,25.411,18.341
94.946097,-17.22,20.923,24.445
94.956745,-14.84,14.066,21.814
94.967393,-12.95,9.143,23.931
94.978041,-8.4,5.515,34.025
94.988689,-3.57,0.796,39.021
94.999337,2.17,-3.888,35.352
95.009985,8.05,-6.682,32.656
95.020633,12.6,-9.553,33.216
95.031303,13.44,-12.959,34.392
95.041973,15.26,-17.857,36.372
95.052643,17.57,-24.275,42.135
95.063313,24.01,-31.282,46.799
95.073983,27.65,-37.929,40.154
95.084653,26.95,-39.58,33.394
95.095323,26.18,-37.476,29.927
95.105993,24.71,-35.908,23.451
95.116663,23.03,-35.637,15.467
95.127333,20.02,-35.074,10.661
95.138003,15.4,-33.655,7.855
95.148673,8.54,-30.59,3.775
95.15937,0.56,-26.05,-1.821
95.170067,-7.84,-20.908,-6.388
95.180764,-16.03,-14.911,-8.955
95.191461,-23.94,-9.145,-10.213
95.202158,-31.78,-4.276,-11.629
95.212855,-38.43,-0.521,-11.962
95.223552,-44.66,2.399,-10.381
95.234249,-48.51,4.905,-7.665
95.244946,-52.43,6.005,-4.628
95.255643,-54.81,6.715,-1.801
95.26634,-55.37,5.957,1.69
95.277037,-54.6,5.357,5.494
95.287738,-52.43,3.464,8.572
95.298439,-49.49,1.701,11.317
95.30914,-45.15,-0.359,13.726
95.319841,-41.23,-2.317,15.158
95.330542,-39.06,-4.551,16.541
95.341243,-36.47,-7.199,17.851
95.351944,-35.28,-9.717,18.829
95.362645,-33.67,-12.227,18.955
95.373346,-32.83,-14.214,18.533
95.384047,-31.64,-15.909,17.666
95.394748,-29.12,-17.56,15.74
95.405449,-27.16,-18.306,13.12
95.41615,-24.64,-18.092,9.889
95.426862,-21.07,-17.233,6.628
95.437574,-17.71,-15.932,2.877
95.448286,-12.95,-13.678,-0.635
95.458998,-9.1,-10.58,-4.496
95.46971,-6.37,-7.308,-7.33
95.480422,-4.27,-3.866,-8.714
95.491134,-2.94,-1.672,-8.256
95.501846,-1.82,-0.35,-6.885
95.512558,-2.24,-0.118,-5.778
95.52327,-4.48,0.482,-5.957
95.533982,-7.49,0.997,-5.653
95.544694,-9.31,1.528,-4.635
95.555445,-10.85,1.333,-5.949
95.566196,-11.13,1.381,-9.85
95.576947,-11.97,1.263,-14.42
95.587698,-12.53,1.761,-18.455
95.598449,-12.67,1.753,-23.645
95.6092,-12.25,1.646,-28.284
95.619951,-10.71,1.683,-30.907
95.630702,-7.98,0.944,-31.962
95.641453,-3.85,0.056,-31.763
95.652204,1.4,-0.244,-31.674
95.662955,5.74,0.535,-32.46
95.673706,9.73,2.87,-34.821
95.684472,13.09,5.586,-38.535
95.695238,15.26,8.153,-40.997
95.706004,15.61,10.638,-43.402
95.71677,14.56,13.777,-45.479
95.727536,12.39,16.785,-46.014
95.738302,9.03,19.928,-44.892
95.749068,6.51,23.002,-42.573
95.759834,3.92,25.537,-40.42
95.7706,2.03,28.566,-38.251
95.781366,0.49,31.75,-36.552
95.792132,0.7,34.884,-35.786
95.802898,0.63,36.879,-35.008
95.813664,0.42,38.964,-33.929
95.82442,-0.63,39.353,-32.51
95.835176,-1.4,39.808,-30.653
95.845932,-2.45,39.581,-28.561
95.856688,-3.57,38.799,-24.931
95.867444,-3.43,37.161,-20.884
95.8782,-2.73,35.438,-17.563
95.888956,-1.82,34.194,-14.939
95.899712,-0.49,33.699,-12.539
95.910468,0.28,32.795,-11.845
95.921224,1.75,32.155,-11.034
95.93198,3.5,31.267,-9.627
95.942736,5.11,29.681,-7.49
95.953492,6.23,27.926,-4.387
95.964244,6.79,24.962,-1.285
95.974996,6.65,21.488,1.088
95.985748,6.23,18.276,3.578
95.9965,6.02,15.669,4.256
96.007252,4.41,13.885,4.296
96.018004,3.22,12.442,6.032
96.028756,7.28,11.152,8.506
96.039508,12.25,8.593,4.074
96.05026,16.24,5.912,-0.877
96.061012,21.07,5.02,0.956
96.071764,24.43,4.355,3.114
96.082516,25.76,3.313,2.574
96.093273,25.41,1.955,0.202
96.10403,23.8,0.121,-3.106
96.114787,19.25,-1.513,-5.527
96.125544,13.09,-3.788,-5.928
96.136301,9.66,-5.151,-5.457
96.147058,7.98,-7.835,-3.94
96.157815,11.55,-11.277,-2.557
96.168572,15.54,-14.882,-4.685
96.179329,16.66,-15.981,-5.306
96.190086,17.78,-15.454,-2.654
96.200843,17.99,-14.4,-2.184
96.2116,18.83,-13.475,-3.798
96.222357,18.06,-12.441,-2.407
96.233097,15.89,-11.909,1.028
96.243837,11.9,-11.953,5.711
96.254577,8.05,-12.938,10.087
96.265317,5.11,-13.518,12.97
96.276057,1.12,-14.478,14.791
96.286797,-2.03,-15.443,15.829
96.297537,-5.18,-16.433,17.005
96.308277,-6.86,-17.58,17.869
96.319017,-7.91,-19.206,18.222
96.329757,-8.68,-20.637,18.68
96.340497,-9.38,-22.259,19.816
96.351237,-10.15,-23.459,21.381
96.361984,-10.64,-24.363,22.075
96.372731,-10.92,-25.114,22.298
96.383478,-11.13,-25.235,21.779
96.394225,-9.94,-25.414,21.179
96.404972,-8.26,-25.045,19.893
96.415719,-5.74,-24.749,17.813
96.426466,-2.31,-25.106,16.613
96.437213,0.63,-25.175,16.601
96.44796,3.15,-24.92,16.361
96.458707,5.25,-25.102,16.187
96.469454,6.23,-24.425,15.169
96.480201,7.07,-22.848,13.883
96.490941,7.7,-20.594,11.58
96.501681,8.26,-18.348,8.919
96.512421,8.4,-15.351,8.453
96.523161,13.79,-13.704,10.804
96.533901,18.13,-12.188,8.655
96.544641,20.16,-8.726,5.143
96.555381,22.54,-3.702,4.465
96.566121,22.96,0.475,4.562
96.576861,24.85,2.624,3.661
96.587601,26.81,3.548,0.839
96.598341,28.28,3.994,-1.286
96.609081,29.12,5.409,-4.875
96.619821,31.22,7.63,-13.439
96.630561,33.25,10.252,-23.07
96.641301,36.96,12.23,-29.048
96.652041,41.58,12.781,-31.367
96.662781,45.92,11.301,-31.841
96.673521,48.72,8.771,-29.586
96.684261,49.63,6.716,-25.186
96.695001,48.93,6.104,-21.314
96.705741,45.78,6.814,-19.696
96.716481,40.88,8.192,-19.453
96.727221,33.67,10.852,-19.624
96.737961,25.2,13.642,-20.127
96.748701,15.96,15.909,-20.083
96.759407,6.86,18.196,-18.542
96.770113,-1.75,19.344,-15.781
96.780819,-8.82,19.689,-12.095
96.791525,-15.47,20.262,-8.084
96.802231,-19.46,21.199,-4.934
96.812937,-21.84,21.645,-3.434
96.823643,-23.1,22.367,-3.093
96.834349,-22.89,23.486,-3.393
96.845055,-22.54,25.063,-4.679
96.855761,-22.54,26.677,-6.171
96.866467,-23.31,27.464,-6.601
96.877173,-22.47,28.137,-5.985
96.887879,-21.42,27.772,-5.125
96.898586,-20.51,27.123,-3.463
96.909293,-19.81,26.045,-1.378
96.92,-19.18,25.186,0.674
96.930707,-19.25,24.655,2.073
96.941414,-19.81,24.18,3.553
96.952121,-20.93,23.779,4.619
96.962828,-22.68,22.899,6.383
96.973535,-24.01,20.921,8.736
96.984242,-24.15,17.872,12.321
96.994949,-24.92,14.969,16.287
97.005656,-24.01,12.29,22.212
97.016363,-16.8,9.959,26.563
97.027039,-11.62,6.702,24.069
97.037715,-5.74,4.079,25.242
97.048391,-0.07,1.31,29.658
97.059067,4.55,-2.412,31.418
97.069743,10.08,-6.35,31.577
97.080419,14.7,-10.438,29.364
97.091095,20.09,-14.845,28.16
97.101771,24.15,-19.574,26.758
97.112447,25.97,-23.694,25.534
97.123123,26.6,-27.088,24.224
97.133799,26.6,-30.255,23.239
97.144475,26.88,-32.668,21.605
97.155151,28.7,-34.505,19.931
97.165815,30.31,-35.548,15.767
97.176479,29.82,-35.524,10.795
97.187143,29.4,-33.331,7.628
97.197807,28.77,-30.408,5.158
97.208471,26.81,-27.768,2.283
97.219135,23.03,-25.923,0.689
97.229799,17.78,-24.687,1.333
97.240463,10.22,-23.896,2.895
97.251127,0.84,-23.113,4.099
97.261791,-9.66,-22.286,4.245
97.272455,-19.6,-20.976,4.476
97.283119,-28.14,-19.674,4.35
97.293769,-35.63,-18.417,4.074
97.304419,-40.67,-17.444,3.392
97.315069,-44.31,-15.92,2.808
97.325719,-46.83,-14.561,2.763
97.336369,-48.09,-13.908,3.092
97.347019,-49.42,-12.813,2.929
97.357669,-49.49,-11.759,3.4
97.368319,-49.77,-11.236,4.061
97.378969,-49.91,-10.737,4.859
97.389619,-49.7,-10.502,5.541
97.400269,-48.86,-10.919,5.893
97.410919,-47.25,-11.985,7.909
97.421569,-44.59,-12.885,9.385
97.432219,-40.81,-14.341,9.981
97.44288,-36.96,-15.197,10.399
97.453541,-33.32,-16.052,10.817
97.464202,-31.99,-16.434,9.755
97.474863,-33.67,-15.915,7.216
97.485524,-36.68,-14.756,3.866
97.496185,-38.78,-13.11,0.176
97.506846,-39.48,-11.614,-3.469
97.517507,-39.55,-10.183,-5.136
97.528168,-35,-10.223,-3.295
97.538829,-30.03,-11.492,-1.742
97.54947,-26.88,-12.964,-0.651
97.560111,-25.97,-12.501,1.563
97.570752,-25.34,-10.806,2.43
97.581393,-24.85,-9.679,1.279
97.592034,-24.57,-8.84,-1.061
97.602675,-24.64,-7.896,-4.804
97.613316,-22.96,-7.142,-7.87
97.623957,-20.72,-6.38,-11.787
97.634598,-19.39,-5.517,-16.681
97.645239,-17.43,-3.312,-21.126
97.65588,-15.61,-1.552,-24.654
97.666521,-13.37,-0.677,-25.992
97.677162,-9.59,-1.09,-24.857
97.68779,-6.37,-2.529,-22.339
97.698418,-4.34,-3.53,-18.677
97.709046,-2.1,-3.66,-15.927
97.719674,-0.84,-3.275,-15.291
97.730302,0.28,-1.649,-15.644
97.74093,0.07,0.237,-16.662
97.751558,-1.26,1.518,-18.284
97.762186,-3.71,2.345,-19.347
97.772814,-8.54,2.771,-19.343
97.783442,-13.3,2.731,-17.502
97.79407,-17.22,2.573,-15.397
97.804698,-19.6,2.204,-12.903
97.815353,-20.02,2.063,-10.085
97.826008,-19.74,1.872,-8.199
97.836663,-18.13,2.371,-7.401
97.847318,-15.05,3.247,-7.531
97.857973,-11.69,5.128,-9.331
97.868628,-8.89,7.553,-11.392
97.879283,-7.7,9.981,-13.878
97.889938,-7.35,12.556,-14.774
97.900593,-6.93,14.977,-13.992
97.911248,-6.72,16.616,-13.205
97.921903,-5.95,17.135,-10.91
97.932558,-5.46,17.423,-7.305
97.94323,-5.6,17.448,-3.818
97.953902,-7.21,17.55,-1.17
97.964574,-8.05,18.215,0.298
97.975246,-9.1,18.633,-0.055
97.985918,-9.59,19.026,-1.479
97.99659,-9.52,19.208,-3.721
98.007262,-9.8,18.863,-4.99
98.017934,-9.45,17.631,-3.644
98.028606,-4.55,15.547,0.111
98.039278,0.35,11.917,-3.088
98.04995,1.05,8.081,-5.114
98.060622,1.61,5.353,-0.122
98.071284,4.13,2.125,4.071
98.081946,9.1,-1.025,3.8
98.092608,12.67,-4.777,-1.127
98.10327,12.46,-7.036,-2.022
98.113932,10.15,-8.086,0.707
98.124594,6.02,-10.332,3.367
98.135256,4.27,-13.993,8.408
98.145918,2.94,-18.708,15.395
98.15658,5.18,-23.362,22.038
98.167242,6.72,-27.757,25.599
98.177904,7.21,-29.902,28.49
98.188566,7.07,-30.862,30.311
98.199228,6.65,-30.173,28.016
98.209918,6.37,-29.878,24.727
98.220608,5.39,-29.845,23.738
98.231298,2.73,-29.777,23.75
98.241988,-1.05,-29.906,22.874
98.252678,-5.04,-29.388,20.336
98.263368,-8.47,-27.47,17.12
98.274058,-11.9,-25.601,12.971
98.284748,-15.68,-23.068,9.082
98.295438,-19.67,-20.728,6.296
98.306128,-22.54,-18.223,4.179
98.316818,-24.43,-16.175,3.048
98.327508,-26.32,-14.229,2.893
98.338192,-27.79,-12.651,4.024
98.348876,-28.35,-11.596,5.703
98.35956,-28.21,-11.085,7.641
98.370244,-28.07,-10.943,9.656
98.380928,-27.86,-11.117,11.047
98.391612,-26.88,-11.583,12.884
98.402296,-25.9,-11.997,14.02
98.41298,-24.57,-11.98,14.733
98.423664,-23.03,-12.686,15.107
98.434348,-20.58,-13.181,15.09
98.445032,-18.34,-13.469,15.111
98.455716,-16.8,-13.57,14.88
98.4664,-15.4,-13.643,15.293
98.477099,-13.86,-13.189,14.734
98.487798,-13.09,-11.985,13.951
98.498497,-13.37,-10.59,12.491
98.509196,-14.28,-8.984,10.642
98.519895,-15.19,-7.006,8.289
98.530594,-14.98,-5.121,6.063
98.541293,-14.98,-2.72,2.932
98.551992,-15.82,-0.831,1.488
98.562691,-15.05,-0.056,2.336
98.57339,-13.93,-0.353,1.999
98.584089,-13.3,-0.766,0.718
98.594788,-13.58,-0.239,-0.255
98.605487,-13.09,0.835,-0.706
98.616186,-11.76,1.5,-1.655
98.626885,-10.71,0.896,-3.467
98.637584,-9.38,0.701,-7.198
98.648283,-8.89,0.436,-10.94
98.658982,-9.31,1.348,-16.111
98.669681,-8.75,3.034,-21.642
98.68038,-6.02,4.278,-26.682
98.691079,-1.54,5.782,-29.971
98.701778,4.69,7.668,-30.989
98.712477,12.46,11.313,-31.91
98.723176,20.65,17.063,-33.882
98.733875,29.26,24.82,-35.144
98.744601,37.24,33.116,-36.24
98.755327,42.63,41.867,-36.687
98.766053,45.5,51.071,-37.694
98.776779,44.8,60.945,-40.076
98.787505,42.42,70.247,-42.843
98.798231,38.78,78.15,-42.515
98.808957,34.16,84.667,-40.371
98.819683,29.82,89.841,-37.468
98.830409,26.67,93.605,-33.819
98.841135,23.94,95.329,-29.89
98.851861,21.63,95.463,-24.607
98.862587,19.04,94.564,-20.714
98.873341,16.45,93.4,-19.355
98.884095,13.23,92.921,-19.866
98.894849,10.08,92.8,-21.594
98.905603,7.07,91.826,-24.537
98.916357,3.57,89.681,-26.479
98.927111,0.42,86.481,-27.683
98.937865,-1.61,83.407,-28.794
98.948619,-3.5,78.667,-28.919
98.959373,-4.41,73.748,-27.227
98.970127,-5.32,69.308,-25.025
98.980881,-6.37,64.516,-23.24
98.991635,-5.88,59.8,-21.086
99.002399,-6.16,54.865,-18.9
99.013163,-7.35,49.298,-16.754
99.023927,-7.63,43.617,-14.77
99.034691,-7.56,38.395,-13.772
99.045455,-7.91,32.982,-12.097
99.056219,-8.47,27.24,-9.768
99.066983,-8.54,22.249,-7.663
99.077747,-10.29,17.853,-5.31
99.088511,-6.86,14.886,-1.782
99.099275,-0.56,11.552,-3.436
99.110039,4.34,7.375,-7.158
99.120803,7.56,4.452,-3.48
99.131567,10.57,2.064,1.999
99.142313,13.58,-1.025,3.8
99.153059,15.89,-4.736,1.866
99.163805,14.35,-8.726,1.518
99.174551,13.37,-11.349,3.898
99.185297,9.52,-13.543,4.649
99.196043,7.35,-15.437,5.31
99.206789,6.23,-16.99,5.25
99.217535,5.25,-17.03,4.674
99.228281,4.41,-17.395,5.533
99.239027,7.77,-16.73,7.001
99.249773,10.43,-17.817,5.104
99.260519,11.76,-19.009,3.401
99.271265,11.83,-19.188,4.009
99.281993,11.48,-18.758,3.587
99.292721,10.64,-18.219,1.337
99.303449,9.45,-18.422,-0.334
99.314177,7.07,-19.16,-0.18
99.324905,3.43,-20.77,0.887
99.335633,-0.91,-22.472,2.079
99.346361,-5.6,-23.924,2.25
99.357089,-10.29,-24.914,2.217
99.367817,-13.65,-25.356,1.5
99.378545,-16.31,-25.571,-0.102
99.389273,-17.85,-25.36,-1.7
99.400001,-18.83,-25.081,-3.285
99.410746,-18.9,-24.768,-3.443
99.421491,-19.39,-23.803,-3.273
99.432236,-18.62,-22.465,-3.606
99.442981,-17.85,-20.957,-4.904
99.453726,-17.64,-19.343,-6.396
99.464471,-17.64,-17.186,-6.94
99.475216,-17.08,-16.286,-5.999
99.485961,-15.82,-15.685,-4.969
99.496706,-12.46,-15.835,-4.925
99.507451,-10.36,-16.744,-3.805
99.518196,-6.93,-18.601,-2.142
99.528941,-4.69,-20.652,-1.793
99.539689,-2.73,-22.623,-1.501
99.550437,-0.42,-23.617,-2.316
99.561185,1.19,-23.593,-4.871
99.571933,2.03,-23.175,-7.64
99.582681,1.19,-22.06,-8.723
99.593429,4.27,-20.037,-7.3
99.604177,4.83,-19.372,-9.458
99.614925,2.38,-19.19,-10.492
99.625673,0.14,-17.993,-8.006
99.636421,-0.49,-15.536,-6.222
99.647169,1.54,-13.674,-5.894
99.657917,3.85,-14.08,-8.027
99.668665,4.9,-14.701,-10.553
99.679413,4.13,-14.231,-14.024
99.690171,2.66,-12.687,-19.154
99.700929,2.59,-10.774,-25.569
99.711687,2.52,-9.022,-29.454
99.722445,4.06,-7.66,-29.925
99.733203,8.4,-7.769,-28.096
99.743961,12.39,-8.928,-24.746
99.754719,15.47,-10.473,-18.408
99.765477,17.5,-11.193,-11.498
99.776235,18.62,-10.767,-7.869
99.786993,18.69,-9.822,-6.779
99.797751,16.8,-9.234,-5.68
99.808487,12.74,-8.808,-3.259
99.819223,6.51,-8.747,-1.187
99.829959,-1.26,-9.708,0.634
99.840695,-9.73,-11.228,3.209
99.851431,-16.66,-12.225,5.237
99.862167,-21,-13.084,7.289
99.872903,-23.87,-13.474,8.286
99.883639,-25.69,-13.822,8.651
99.894375,-26.53,-13.518,8.136
99.905111,-26.04,-12.825,6.624
99.915847,-26.04,-12.095,4.904
99.926583,-26.18,-10.332,2.159
99.937319,-26.74,-8.755,-0.335
99.948048,-26.67,-6.748,-2.043
99.958777,-26.74,-4.599,-2.943
99.969506,-24.5,-2.981,-3.653
99.980235,-21.84,-2.166,-3.438
99.990964,-18.34,-1.975,-1.699
100.001693,-14.14,-1.731,0.548
100.012422,-10.29,-1.309,2.186
100.023151,-8.12,-1.03,3.017
100.03388,-6.58,-0.036,3.832
100.044609,-5.39,1.128,3.682
100.055338,-4.48,1.902,3.321
100.066067,-4.34,2.069,3.99
100.076755,-4.55,1.319,6.63
100.087443,-3.85,-0.42,10.446
100.098131,0.14,-1.928,15.369
100.108819,4.97,-3.967,18.066
100.119507,10.15,-5.877,21.638
100.130195,14.21,-8.759,25.892
100.140883,16.73,-11.832,32.032
100.151571,18.41,-14.605,36.874
100.162259,19.04,-17.091,38.071
100.172947,19.39,-19.179,37.418
100.183635,20.09,-21.713,38.89
100.194323,19.74,-24.843,40.115
100.205011,20.02,-27.734,41.596
100.215659,21,-30.609,41.373
100.226307,22.75,-33.74,42.598
100.236955,28.84,-37.251,43.969
100.247603,33.18,-41.741,37.989
100.258251,32.13,-45.379,32.016
100.268899,30.17,-46.579,31.165
100.279547,27.93,-46.482,28.197
100.290195,24.71,-45.409,21.705
100.300843,21.49,-44.002,18.967
100.311491,17.78,-41.889,19.482
100.322139,12.25,-39.314,19.794
100.332787,6.51,-36.772,18.678
100.343435,-0.28,-34.08,17.518
100.354069,-6.72,-30.747,15.547
100.364703,-13.09,-26.871,13.316
100.375337,-18.55,-23.627,11.045
100.385971,-23.73,-20.57,9.025
100.396605,-27.44,-18.469,7.192
100.407239,-30.66,-17.237,5.846
100.417873,-33.32,-16.718,4.516
100.428507,-35.07,-16.471,3.919
100.439141,-36.61,-16.341,3.587
100.449775,-37.66,-16.852,2.857
100.460409,-37.59,-17.907,2.387
100.471043,-36.68,-18.928,3.344
100.481668,-33.81,-20.214,4.184
100.492293,-29.68,-21.576,5.862
100.502918,-23.87,-23.226,7.562
100.513543,-18.06,-24.276,9.083
100.524168,-12.32,-25.054,9.869
100.534793,-7.28,-25.2,9.488
100.545418,-2.8,-24.256,8.162
100.556043,-0.35,-22.293,6.305
100.566668,1.82,-20.449,4.711
100.577293,2.45,-18.146,3.34
100.587918,3.01,-16.094,4.199
100.598543,6.16,-14.605,5.03
100.609153,5.32,-14.845,4.775
100.619763,5.53,-14.654,5.306
100.630373,5.25,-13.044,4.239
100.640983,4.27,-11.025,2.463
100.651593,5.18,-9.177,-0.765
100.662203,5.6,-6.85,-5.899
100.672813,7.56,-3.83,-12.546
100.683423,8.96,-0.672,-20.376
100.694033,10.71,3.041,-28.535
100.704643,12.67,6.224,-32.879
100.715253,16.66,7.655,-34.546
100.725863,21.07,7.635,-33.625
100.736473,26.39,6.739,-28.95
100.747092,31.5,5.568,-23.114
100.757711,33.46,4.251,-17.66
100.76833,32.27,4.39,-12.802
100.778949,28.56,6.211,-10.633
100.789568,22.54,8.169,-10.856
100.800187,15.68,10.481,-10.662
100.810806,7.91,12.176,-9.794
100.821425,-0.28,12.813,-7.763
100.832044,-8.19,13.06,-4.734
100.842663,-13.44,12.781,-0.732
100.853282,-16.73,12.295,2.026
100.863901,-19.67,11.825,4.289
100.874546,-21.42,12.117,6.259
100.885191,-22.12,13.034,6.705
100.895836,-21.56,14.704,5.294
100.906481,-20.86,16.812,2.609
100.917126,-19.18,19.383,-1.487
100.927771,-18.06,22.395,-6.073
100.938416,-18.27,25.853,-10.368
100.949061,-18.69,29.048,-13.572
100.959706,-19.53,31.675,-15.17
100.970351,-20.09,34.279,-15.422
100.980996,-19.11,37.048,-16.213
100.991641,-18.62,38.334,-15.844
101.002268,-18.34,39.729,-13.679
101.012895,-18.76,40.39,-10.577
101.023522,-20.37,41.477,-7.471
101.034149,-23.1,42.281,-4.771
101.044776,-26.53,43.035,-1.794
101.055403,-30.31,43.506,0.777
101.06603,-33.46,43.685,3.793
101.076657,-30.8,43.783,10.492
101.087284,-22.82,43.021,14.41
101.097911,-18.06,39.169,12.877
101.108538,-15.4,35.022,19.467
101.119165,-11.13,31.127,35.911
101.129792,-5.6,26.38,46.304
101.140419,1.61,21.283,48.604
101.151032,9.87,16.158,51.468
101.161645,15.33,10.223,58.524
101.172258,15.19,3.719,64.77
101.182871,13.3,-2.809,67.528
101.193484,10.43,-9.248,68.17
101.204097,9.31,-15.542,66.776
101.21471,10.22,-21.925,62.665
101.225323,9.94,-27.708,54.75
101.235936,7.84,-31.574,46.037
101.246549,5.95,-34.243,37.392
101.257162,3.36,-35.526,26.93
101.267775,-0.91,-35.665,16.03
101.278399,-6.86,-35.139,7.807
101.289023,-15.12,-33.174,1.898
101.299647,-24.99,-30.291,-3.564
101.310271,-35.07,-26.379,-8.419
101.320895,-43.96,-21.769,-11.586
101.331519,-50.96,-17.025,-13.095
101.342143,-56,-12.321,-13.972
101.352767,-59.29,-8.748,-13.271
101.363391,-60.41,-6.096,-11.382
101.374015,-60.69,-4.454,-8.604
101.384639,-59.85,-3.399,-5.717
101.395263,-58.31,-2.908,-2.858
101.405894,-56.07,-2.668,-0.186
101.416525,-54.11,-2.931,2.113
101.427156,-51.45,-3.174,4.7
101.437787,-48.93,-3.791,6.582
101.448418,-45.15,-4.386,7.543
101.459049,-41.02,-5.189,8.468
101.46968,-36.12,-6.385,9.607
101.480311,-31.43,-7.902,10.548
101.490942,-27.3,-9.58,11.603
101.501573,-24.08,-11.498,12.402
101.512204,-21.84,-13.376,12.568
101.522835,-20.3,-14.734,11.405
101.533466,-18.97,-14.8,8.55
101.544122,-18.69,-14.224,4.884
101.554778,-19.18,-12.745,0.525
101.565434,-21.56,-10.839,-2.622
101.57609,-22.47,-9.193,-2.687
101.586746,-21.49,-9.615,-1.909
101.597402,-22.61,-11.184,-3.891
101.608058,-26.11,-10.998,-4.143
101.618714,-28.91,-9.189,-3.113
101.62937,-29.68,-7.693,-3.133
101.640026,-28.49,-7.186,-5.603
101.650682,-26.81,-7.43,-7.849
101.661338,-24.78,-7.158,-7.375
101.672035,-22.47,-7.195,-8.377
101.682732,-20.86,-6.968,-12.886
101.693429,-19.81,-5.578,-17.545
101.704126,-17.71,-4.062,-20.903
101.714823,-15.54,-2.907,-23.827
101.72552,-11.76,-3.032,-23.92
101.736217,-6.3,-4.443,-20.757
101.746914,-1.68,-6.214,-15.951
101.757611,2.17,-7.41,-11.187
101.768308,4.2,-6.574,-9.476
101.779005,6.09,-4.044,-10.522
101.789702,5.53,-1.279,-13.304
101.800399,3.22,1.579,-16.212
101.811096,-2.45,3.505,-17.863
101.821793,-9.73,5.139,-19.067
101.83249,-18.34,6.591,-19.238
101.843187,-25.69,7.309,-17.263
101.853884,-31.36,6.944,-13.987
101.864581,-35.07,6.45,-11.586
101.875278,-37.66,6.142,-9.437
101.885975,-38.99,5.923,-8.196
101.896672,-38.5,5.919,-7.77
101.907369,-36.4,6.637,-8.212
101.918066,-33.95,7.894,-9.697
101.928763,-31.01,9.268,-11.444
101.93946,-27.86,10.513,-12.86
101.950157,-24.99,11.766,-12.71
101.960907,-21.63,12.435,-11.668
101.971657,-19.53,11.665,-9.316
101.982407,-17.64,10.408,-6.623
101.993157,-17.22,9.484,-3.801
102.003907,-17.15,8.398,-0.865
102.014657,-16.66,8.349,0.619
102.025407,-16.03,8.293,1.747
102.036157,-15.12,8.248,2.805
102.046907,-14.28,8.078,3.77
102.057657,-12.11,7.551,7.16
102.068407,-9.17,6.234,10.197
102.079155,-8.68,3.193,9.306
102.089903,-7.56,1.052,10.563
102.100651,-5.18,-1.105,15.94
102.111399,-1.96,-4.255,21.711
102.122147,3.71,-7.251,24.595
102.132895,8.54,-10.126,23.164
102.143643,12.53,-11.103,23.062
102.154391,16.38,-12.701,22.852
102.165139,18.55,-13.727,20.609
102.175887,19.39,-14.307,18.659
102.186635,18.2,-15.459,18.74
102.197383,17.01,-17.381,18.757
102.208131,17.08,-19.433,16.689
102.218887,19.25,-20.861,13.096
102.229643,21.42,-21.312,8.397
102.240399,23.8,-19.991,3.725
102.251155,28.21,-17.133,-1.599
102.261911,31.43,-14.343,-5.728
102.272667,32.41,-12.288,-6.502
102.283423,29.26,-10.584,-4.07
102.294179,23.1,-8.901,-0.716
102.304935,16.31,-7.096,3.156
102.315691,9.59,-5.04,4.798
102.326447,3.22,-3.361,4.952
102.337203,-2.87,-2.132,4.031
102.347972,-7.35,-1.463,2.656
102.358741,-9.59,-1.074,1.659
102.36951,-10.57,-0.961,0.612
102.380279,-9.52,-0.912,-0.872
102.391048,-7.84,-1.132,-2.048
102.401817,-5.04,-1.639,-3.203
102.412586,-1.12,-1.391,-3.799
102.423355,1.12,-0.941,-3.933
102.434124,2.73,-0.613,-3.378
102.444893,2.66,-0.617,-2.952
102.455662,1.61,-0.321,-2.615
102.466431,0.56,-0.239,-1.464
102.477225,-0.14,-0.101,-0.231
102.488019,-1.89,0.406,0.924
102.498813,-3.43,1.468,1.752
102.509607,-4.62,3.159,1.836
102.520401,-5.11,5.025,2.947
102.531195,-6.37,6.837,3.551
102.541989,-7.35,8.755,2.752
102.552783,-8.75,10.722,1.677
102.563577,-10.08,11.784,1.296
102.574371,-9.87,12.072,1.276
102.585165,-9.31,11.212,2.119
102.595959,-8.68,9.294,1.71
102.60674,-8.75,8.078,1.353
102.617521,-9.52,7.186,0.769
102.628302,-10.85,6.666,-0.317
102.639083,-13.58,6.143,-0.978
102.649864,-16.1,5.616,-1.213
102.660645,-18.76,4.606,-1.533
102.671426,-22.68,3.001,1.524
102.682207,-17.22,-0.145,9.286
102.692988,-3.85,-6.597,6.371
102.703769,-2.8,-13.612,3.428
102.71455,-0.7,-16.736,18.728
102.725331,3.08,-20.32,22.93
102.736112,5.95,-22.134,12.659
102.746892,11.48,-21.239,6.775
102.757672,19.25,-20.871,3.073
102.768452,26.95,-19.574,-2.67
102.779232,32.97,-17.437,-7.126
102.790012,36.61,-14.948,-9.957
102.800792,38.5,-10.318,-11.628
102.811572,40.11,-5.492,-11.986
102.822352,41.65,-1.854,-9.638
102.833132,41.3,0.555,-3.954
102.843912,37.24,2.754,2.12
102.854692,30.94,5.897,6.868
102.865472,23.45,7.889,11.698
102.876219,15.19,8.116,16.855
102.886966,7.56,7.403,21.705
102.897713,0.84,5.125,25.355
102.90846,-5.39,2.98,25.83
102.919207,-11.06,0.964,23.555
102.929954,-14.56,-0.995,20.153
102.940701,-16.38,-2.978,16.889
102.951448,-16.38,-4.483,14.136
102.962195,-15.33,-5.428,11.837
102.972942,-13.58,-5.136,8.974
102.983689,-11.69,-3.036,5.933
102.994436,-8.05,-0.644,3.654
103.005183,-5.04,1.906,2.895
103.01592,-2.03,5.158,0.981
103.026657,1.05,9.043,-0.893
103.037394,3.57,11.707,-1.49
103.048131,4.41,13.698,-1.494
103.058868,4.9,15.875,-1.75
103.069605,4.9,17.128,-1.6
103.080342,4.83,18.113,-1.142
103.091079,4.06,18.746,0.107
103.101816,4.27,19.476,0.804
103.112553,5.39,20.068,1.477
103.12329,6.93,19.724,2.625
103.134027,7.42,18.609,3.708
103.14477,5.74,16.326,4.158
103.155513,2.52,13.779,4.491
103.166256,-0.49,10.487,4.621
103.176999,-2.03,7.729,4.135
103.187742,-3.15,5.714,4.277
103.198485,-4.97,4.668,5.372
103.209228,-7.7,4.109,6.127
103.219971,-10.85,4.044,6.897
103.230714,-12.95,3.075,9.569
103.241457,-10.29,2.033,13.864
103.2522,-10.92,-0.42,15.279
103.262943,-15.54,-1.21,16.135
103.27368,-18.06,-1.632,14.497
103.284417,-19.46,-1.945,8.613
103.295154,-20.72,-2.477,3.97
103.305891,-20.51,-3.511,1.371
103.316628,-20.86,-5.324,0.767
103.327365,-17.64,-7.858,5.865
103.338102,-10.08,-10.829,11.027
103.348839,-5.04,-12.435,12.876
103.359576,-2.1,-13.173,14.239
103.370313,-0.77,-12.131,13.57
103.38105,0.21,-9.033,8.501
103.391787,0.42,-5.016,1.035
103.402524,-0.7,-0.921,-6.062
103.413261,-0.84,2.131,-11.281
103.423971,-1.26,3.919,-15.373
103.434681,-1.82,4.665,-17.587
103.445391,-3.57,4.531,-16.829
103.456101,-4.76,4.203,-14.968
103.466811,-6.16,4.057,-14.14
103.477521,-8.96,3.412,-14.112
103.488231,-12.39,2.261,-14.031
103.498941,-15.12,1.746,-14.335
103.509651,-16.1,1.324,-15.973
103.520361,-17.43,0.983,-17.668
103.531071,-18.13,1.015,-19.866
103.541781,-19.6,1.124,-22.903
103.552481,-20.58,1.104,-24.399
103.563181,-21.21,0.118,-23.649
103.573881,-21.07,-1.349,-21.775
103.584581,-20.44,-2.886,-18.705
103.595281,-18.41,-3.806,-15.1
103.605981,-14.63,-4.657,-11.483
103.616681,-10.22,-5.398,-7.278
103.627381,-4.06,-5.835,-2.379
103.638081,2.52,-7.071,3.018
103.648781,8.4,-8.632,9.851
103.659481,11.48,-10.541,17.049
103.670181,12.88,-13.313,23.099
103.68088,13.23,-18.037,27.313
103.691579,13.93,-23.742,30.643
103.702278,14.07,-29.495,33.04
103.712977,13.44,-34.394,33.811
103.723676,10.08,-38.254,34.339
103.734375,4.41,-40.635,32.924
103.745074,-2.94,-41.519,29.072
103.755773,-10.15,-39.022,24.181
103.766472,-16.45,-33.407,18.135
103.777171,-22.19,-25.699,9.898
103.78787,-30.1,-16.698,1.178
103.798569,-35.98,-6.562,-5.919
103.809255,-40.53,2.289,-12.177
103.819941,-43.68,10.788,-18.853
103.830627,-45.5,17.847,-24.219
103.841313,-46.34,23.207,-27.61
103.851999,-46.69,26.236,-29.066
103.862685,-45.92,27.116,-28.413
103.873371,-43.33,25.551,-25.988
103.884057,-40.95,22.174,-22.958
103.894743,-36.96,17.499,-19.02
103.905429,-36.33,10.934,-14.847
103.916115,-35.84,4.828,-9.242
103.926801,-38.22,0.072,-7.664
103.937487,-40.95,-3.245,-9.813
103.948173,-42.14,-6.202,-11.187
103.958859,-42.21,-8.306,-12.553
103.969545,-41.51,-10.002,-15.837
103.980231,-38.08,-10.635,-20.711
103.990917,-33.04,-10.692,-24.418
104.001603,-26.04,-10.194,-27.244
104.012289,-19.04,-10.024,-29.418
104.022975,-10.01,-9.805,-28.242
104.033661,-1.19,-10.717,-24.28
104.044347,8.12,-13.275,-19.044
104.055033,14.84,-15.752,-15.074
104.065719,18.13,-16.692,-12.966
104.076413,19.39,-15.285,-12.078
104.087107,19.11,-13.375,-14.442
104.097801,18.97,-12.419,-15.837
104.108495,18.55,-12.706,-15.817
104.119189,17.22,-13.075,-14.531
104.129883,14.42,-13.383,-13.59
104.140577,10.99,-12.515,-12.869
104.151271,7.21,-11.388,-11.604
104.161965,2.03,-11.027,-10.829
104.172659,-3.43,-10.293,-10.558
104.183353,-7.77,-8.172,-10.895
104.194047,-11.41,-6.096,-11.382
104.204741,-14.21,-3.858,-11.982
104.215435,-16.52,-1.198,-12.153
104.226129,-17.64,1.718,-12.563
104.236823,-16.17,4.527,-13.986
104.247517,-14,7.321,-17.332
104.258211,-10.36,8.115,-19.822
104.268905,-5.95,6.951,-20.88
104.279599,-1.33,4.81,-20.831
104.290293,2.59,2.742,-21.196
104.300987,4.97,1.157,-21.475
104.311681,5.67,0.139,-18.527
104.322375,4.83,0.323,-13.519
104.333069,3.36,0.847,-6.817
104.343723,1.68,1.281,-0.414
104.354377,-0.63,2.815,4.192
104.365031,-3.85,4.709,7.156
104.375685,-7,7.081,8.214
104.386339,-11.13,8.784,8.23
104.396993,-15.54,9.583,8.94
104.407647,-19.53,9.438,12.184
104.418301,-18.13,7.338,17.642
104.428955,-15.47,3.688,16.572
104.439609,-15.26,2.495,11.244
104.450263,-16.38,3.189,13.357
104.460917,-16.87,2.517,17.574
104.471571,-16.38,0.931,16.086
104.482195,-14.21,1.51,11.994
104.492819,-11.97,2.905,9.326
104.503443,-9.8,3.703,7.619
104.514067,-6.72,2.722,7.943
104.524691,-1.89,0.788,10.446
104.535315,4.97,-1.312,12.279
104.545939,7.77,-2.691,8.41
104.556563,7.7,-2.668,4.647
104.567187,6.44,-2.635,2.45
104.577811,7,-2.526,-0.588
104.588435,9.45,-2.843,-2.42
104.599059,12.32,-3.471,-2.887
104.609679,15.47,-3.532,-3.75
104.620299,17.57,-2.644,-3.949
104.630919,18.83,-1.241,-2.636
104.641539,17.5,-0.219,-1.176
104.652159,14.98,1.885,-2.226
104.662779,11.83,5.238,-5.118
104.673399,8.33,8.774,-6.627
104.684019,3.64,11.507,-7.211
104.694639,-1.26,12.833,-6.267
104.705259,-5.53,13.592,-3.716
104.715879,-9.24,13.629,-0.298
104.726499,-11.27,12.267,3.798
104.737122,-12.04,10.349,8.222
104.747745,-11.41,8.813,11.292
104.758368,-10.01,7.13,12.772
104.768991,-9.1,5.168,13.421
104.779614,-8.96,3.635,13.649
104.790237,-10.78,1.981,13.357
104.80086,-13.23,-0.217,14.533
104.811483,-16.17,-2.601,14.752
104.822106,-18.76,-4.633,14.181
104.832729,-21.42,-6.77,13.804
104.843352,-23.1,-7.739,11.643
104.853975,-24.15,-7.882,8.419
104.864589,-23.73,-7.724,5.106
104.875203,-20.86,-7.773,2.965
104.885817,-17.57,-7.927,1.019
104.896431,-14.77,-8.361,0.658
104.907045,-10.78,-8.706,1.806
104.917659,-8.26,-9.355,2.26
104.928273,-7.42,-9.435,3.525
104.938887,-6.37,-8.604,5.662
104.949501,-6.86,-8.166,4.389
104.960115,-8.26,-7.246,3.2
104.970729,-9.66,-5.989,4.133
104.981343,-11.55,-5.49,3.723
104.991957,-12.46,-5.77,0.475
105.002555,-11.48,-5.45,-2.951
105.013153,-6.93,-5.877,-6.58
105.023751,-0.63,-6.725,-10.639
105.034349,5.46,-7.39,-13.316
105.044947,10.92,-8.27,-12.76
105.055545,17.57,-10.946,-12.095
105.066143,21.28,-14.413,-14.199
105.076741,20.51,-14.475,-16.271
105.087339,18.97,-11.644,-18.615
105.097937,16.38,-7.984,-23.656
105.108535,14.07,-3.816,-28.749
105.119133,10.92,0.474,-32.116
105.129731,6.44,4.488,-35.53
105.140338,1.26,7.501,-37.7
105.150945,-4.76,10.096,-38.309
105.161552,-11.97,11.908,-36.497
105.172159,-18.34,12.607,-32.393
105.182766,-23.24,12.408,-28.447
105.193373,-27.16,11.914,-24.838
105.20398,-29.89,11.55,-20.354
105.214587,-30.94,10.898,-15.848
105.225194,-30.38,10.878,-12.511
105.235801,-28.7,11.377,-10.504
105.246408,-27.16,11.332,-9.446
105.257015,-24.01,11.596,-8.12
105.267645,-22.12,12.265,-7.078
105.278275,-20.51,13.032,-6.587
105.288905,-18.97,13.924,-6.003
105.299535,-17.43,14.707,-4.799
105.310165,-16.24,15.51,-3.307
105.320795,-15.47,15.315,-2.204
105.331425,-14.7,15.433,-0.051
105.342055,-14.14,15.567,1.608
105.352685,-14.56,16.05,2.901
105.363315,-14.98,16.139,4.41
105.373945,-13.93,16.087,6.319
105.384575,-13.3,15.848,8.481
105.395202,-12.39,15.228,9.58
105.405829,-11.69,14.749,10.277
105.416456,-10.71,14.47,10.655
105.427083,-8.96,14.648,10.046
105.43771,-7.21,14.567,10.103
105.448337,-2.1,13.983,13.412
105.458964,3.92,11.526,15.253
105.469591,10.71,9.925,16.677
105.480218,16.17,7.727,19.061
105.490845,19.6,7.063,22.427
105.501472,22.33,5.405,26.186
105.512099,24.43,3.807,27.184
105.522726,23.59,1.642,26.163
105.533352,20.86,-0.138,26.986
105.543978,15.4,-2.636,28.251
105.554604,9.66,-4.542,28.982
105.56523,4.83,-6.772,27.522
105.575856,-0.07,-10.219,26.914
105.586482,-1.33,-13.662,27.089
105.597108,0.35,-17.749,24.876
105.607734,0.77,-21.627,18.648
105.61836,1.61,-22.791,13.965
105.628986,3.29,-22.427,9.48
105.639612,4.55,-21.106,3.6
105.650238,5.25,-19.975,-0.395
105.660886,5.46,-17.879,-3.01
105.671534,4.2,-15.446,-4.714
105.682182,1.26,-12.766,-5.805
105.69283,-1.47,-9.968,-5.951
105.703478,-4.62,-7.194,-5.96
105.714126,-9.52,-4.636,-6.362
105.724774,-15.54,-2.037,-7.396
105.735422,-22.33,0.376,-8.179
105.74607,-29.12,2.274,-8.058
105.756718,-34.93,3.762,-8.435
105.767366,-39.06,4.707,-8.553
105.778014,-42.35,4.103,-7.948
105.788703,-43.89,3.263,-6.817
105.799392,-44.59,2.477,-6.387
105.810081,-43.54,1.353,-6.869
105.82077,-41.16,0.765,-7.968
105.831459,-36.89,0.011,-9.736
105.842148,-32.06,-1.222,-10.806
105.852837,-26.67,-2.808,-11.086
105.863526,-20.51,-3.955,-10.222
105.874215,-13.16,-5.484,-9.212
105.884904,-5.11,-5.759,-9.261
105.895593,3.57,-3.314,-9.825
105.906282,11.62,1.28,-11.289
105.917001,18.9,6.819,-12.871
105.92772,25.62,14.981,-14.418
105.938439,30.52,24.097,-15.725
105.949158,32.97,34.473,-17.733
105.959877,31.78,44.618,-19.64
105.970596,28.21,54.318,-21.84
105.981315,21.7,62.103,-23.665
105.992034,13.44,68.299,-24.137
106.002753,6.93,71.945,-21.433
106.013472,1.12,71.479,-19.596
106.024191,-5.18,67.631,-17.928
106.03491,-11.83,62.307,-14.745
106.045629,-16.59,56.342,-13.166
106.056388,-19.81,49.42,-15.027
106.067147,-19.81,40.774,-18.399
106.077906,-16.66,31.983,-22.153
106.088665,-9.87,23.511,-25.708
106.099424,-0.42,15.555,-28.959
106.110183,9.03,7.757,-30.689
106.120942,17.78,-0.641,-28.616
106.131701,23.73,-8.864,-24.308
106.14246,26.88,-15.107,-18.728
106.153219,29.89,-20.808,-14.615
106.163978,29.61,-25.645,-10.564
106.174737,26.74,-27.493,-3.711
106.185535,22.89,-25.989,-0.957
106.196333,18.83,-22.279,-5.066
106.207131,15.05,-18.488,-10.439
106.217929,10.36,-14.555,-12.589
106.228727,4.06,-11.611,-13.562
106.239525,-2.66,-9.693,-14.361
106.250323,-7.91,-7.856,-12.687
106.261121,-11.34,-7.093,-9.354
106.271919,-13.51,-7.077,-5.015
106.282717,-15.12,-7.834,-0.315
106.293515,-15.26,-8.264,3.732
106.304313,-15.33,-8.328,5.711
106.315097,-13.93,-7.684,4.474
106.325881,-11.55,-5.563,0.512
106.336665,-9.66,-3.07,-3.953
106.347449,-7.14,-1.136,-7.664
106.358233,-4.97,1.126,-10.819
106.369017,-3.29,3.603,-12.372
106.379801,-0.98,7.046,-13.756
106.390585,2.03,9.673,-12.937
106.401369,4.62,11.657,-9.673
106.412153,4.62,13.969,-5.853
106.422937,2.52,15.599,-3.007
106.433721,-2.17,17.59,-1.803
106.444505,-7.91,18.949,-0.639
106.455289,-14.7,19.379,1.356
106.466058,-21.77,19.014,3.424
106.476827,-28.84,17.174,5.8
106.487596,-35.63,14.705,8.919
106.498365,-41.37,11.822,11.965
106.509134,-44.66,9.061,16.738
106.519903,-43.54,6.045,19.333
106.530672,-39.2,2.715,18.462
106.541441,-32.48,0.323,19.533
106.55221,-25.27,-1.526,22.761
106.562979,-18.48,-3.411,24.987
106.573748,-11.13,-5.511,24.404
106.584517,-3.92,-7.389,22.153
106.595278,2.8,-8.391,20.982
106.606039,7.56,-9.981,19.92
106.6168,10.43,-12.657,18.168
106.627561,11.97,-15.5,18.164
106.638322,11.69,-18.626,17.755
106.649083,9.1,-22.154,15.996
106.659844,8.33,-23.975,15.035
106.670605,9.17,-26.177,13.012
106.681366,9.73,-27.609,7.429
106.692127,9.87,-28.344,4.74
106.702888,10.85,-26.892,3.361
106.713649,11.9,-25.668,0.45
106.72441,12.46,-24.436,-0.897
106.735171,13.09,-22.915,0.153
106.745932,11.27,-21.151,2.241
106.756693,7.7,-19.609,4.788
106.76749,3.43,-18.052,6.839
106.778287,-1.4,-16.134,8.457
106.789084,-7.07,-13.806,9.365
106.799881,-11.55,-11.839,9.498
106.810678,-16.73,-9.925,9.125
106.821475,-20.65,-8.749,8.906
106.832272,-22.61,-8.109,8.095
106.843069,-24.15,-8.056,6.185
106.853842,-23.73,-7.72,4.681
106.864615,-23.17,-7.895,2.446
106.875388,-22.54,-8.657,0.322
106.886161,-21.84,-10.203,-1.799
106.896934,-20.58,-11.525,-4.378
106.907707,-19.18,-14.023,-5.529
106.91848,-18.13,-16.415,-5.667
106.929253,-17.78,-19.157,-5.439
106.940026,-18.9,-20.904,-5.605
106.950799,-20.37,-21.553,-6.359
106.961572,-22.12,-20.775,-8.354
106.972345,-21.91,-19.023,-9.823
106.983118,-21.77,-16.408,-11.352
106.993898,-22.68,-13.975,-13.055
107.004678,-23.52,-10.926,-14.223
107.015458,-23.94,-8.156,-12.598
107.026238,-24.43,-6.364,-11.073
107.037018,-25.48,-6.209,-9.127
107.047798,-27.86,-6.428,-5.469
107.058578,-32.2,-7.652,-3.766
107.069358,-36.96,-8.569,-3.004
107.080138,-40.74,-9.368,-3.713
107.090918,-41.37,-9.83,-7.135
107.101698,-37.8,-11.108,-11.981
107.112478,-30.52,-12.175,-16.007
107.123257,-21.42,-13.206,-19.032
107.134036,-13.72,-12.922,-22.252
107.144815,-8.19,-11.97,-23.221
107.155594,-4.76,-10.267,-24.414
107.166373,-1.75,-8.608,-24.548
107.177152,1.47,-9.058,-21.997
107.187931,3.57,-11.028,-18.08
107.19871,3.01,-12.738,-12.411
107.209489,2.17,-11.732,-9.248
107.220268,1.54,-7.694,-11.592
107.231047,-0.28,-3.157,-17.971
107.241826,-3.36,0.638,-22.562
107.252605,-7.98,3.411,-23.779
107.263388,-12.39,5.759,-21.375
107.274171,-16.03,6.652,-17.166
107.284954,-18.41,6.77,-11.387
107.295737,-19.32,6.929,-5.033
107.30652,-18.76,8.167,0.445
107.317303,-16.87,10.535,3.137
107.328086,-15.26,14.562,2.07
107.338869,-14.77,19.119,-0.396
107.349652,-14.7,22.983,-2.558
107.360435,-14.7,26.057,-3.864
107.371218,-15.12,27.29,-2.794
107.382001,-15.68,26.727,0.803
107.392737,-15.19,25.713,4.534
107.403473,-15.54,24.238,7.259
107.414209,-15.4,23.699,8.301
107.424945,-15.19,22.494,7.876
107.435681,-16.03,21.841,7.547
107.446417,-16.45,22.109,8.448
107.457153,-18.97,21.472,6.416
107.467889,-22.96,20.3,5.001
107.478625,-26.95,19.303,8.237
107.489361,-29.82,16.976,12.163
107.500097,-29.47,13.408,15.869
107.510833,-26.81,10.035,18.473
107.521569,-24.36,7.424,20.785
107.532253,-20.93,5.603,21.032
107.542937,-17.57,4.406,17.339
107.553621,-14.49,3.383,11.045
107.564305,-12.18,2.665,5.445
107.574989,-9.52,0.981,0.884
107.585673,-5.74,-1.732,-4.286
107.596357,-0.63,-4.847,-8.389
107.607041,4.97,-7.045,-12.046
107.617725,10.92,-9.109,-14.045
107.628409,15.68,-11.093,-16.101
107.639093,18.48,-12.743,-18.027
107.649777,19.88,-13.567,-19.807
107.660461,19.11,-13.705,-22.248
107.671115,16.59,-12.825,-24.012
107.681769,13.23,-10.648,-24.268
107.692423,8.82,-8.791,-24.722
107.703077,4.69,-7.578,-25.148
107.713731,0.77,-5.628,-24.52
107.724385,-0.91,-3.454,-23.141
107.735039,-1.19,-1.491,-21.374
107.745693,0.07,0.054,-19.253
107.756347,0.91,0.93,-16.966
107.767001,1.47,0.558,-14.047
107.777655,0.98,0.213,-10.482
107.788309,-0.84,-0.025,-8.321
107.798946,-3.64,0.035,-8.666
107.809583,-6.51,0.315,-10.251
107.82022,-10.57,0.526,-10.64
107.830857,-11.55,0.355,-9.675
107.841494,-13.44,-1.335,-9.76
107.852131,-16.03,-3.022,-7.854
107.862768,-20.02,-4.571,-7.132
107.873405,-25.27,-5.84,-7.996
107.884042,-29.26,-6.745,-9.719
107.894679,-32.2,-7.852,-13.113
107.905316,-33.46,-8.477,-15.213
107.915953,-31.22,-8.311,-14.544
107.92659,-27.3,-7.719,-15.079
107.937227,-23.1,-6.855,-15.14
107.947824,-19.6,-5.33,-13.308
107.958421,-16.66,-2.414,-11.301
107.969018,-13.16,0.051,-9.16
107.979615,-7.49,1.025,-7.425
107.990212,-0.42,0.538,-7.084
108.000809,3.92,-0.787,-3.195
108.011406,6.93,-1.683,1.48
108.022003,10.5,-0.742,-1.837
108.0326,14,0.668,-9.833
108.043197,13.93,1.539,-15.579
108.053794,8.75,1.684,-17.615
108.064386,0.63,1.506,-18.215
108.074978,-7,1.129,-16.078
108.08557,-12.88,0.915,-12.846
108.096162,-15.33,0.895,-8.301
108.106754,-15.68,1.654,-3.333
108.117346,-13.86,2.948,-0.191
108.127938,-11.2,5.454,1.317
108.13853,-8.4,8.074,0.571
108.149122,-6.16,11.625,-1.433
108.159714,-4.27,15.449,-4.171
108.170306,-5.18,18.563,-7.318
108.180898,-7.98,20.89,-10.035
108.191472,-10.85,22.236,-12.428
108.202046,-13.09,23.108,-13.34
108.21262,-14.84,23.343,-12.659
108.223194,-15.47,23.408,-12.221
108.233768,-16.24,23.898,-11.779
108.244342,-17.64,24.734,-11.276
108.254916,-15.4,25.942,-10.068
108.26549,-12.81,26.988,-13.58
108.276064,-10.71,28.095,-13.811
108.286638,-9.8,28.721,-5.669
108.297212,-12.6,28.417,0.888
108.307786,-15.61,27.672,1.894
108.31836,-15.89,27.469,1.432
108.32893,-13.79,27.266,3.386
108.3395,-11.48,25.608,4.729
108.35007,-10.99,22.218,5.41
108.36064,-10.5,18.252,6.133
108.37121,-11.27,14.603,5.063
108.38178,-11.83,10.535,1.929
108.39235,-11.41,6.719,-2.227
108.40292,-10.29,2.639,-4.084
108.41349,-7.42,-0.39,-5.044
108.42406,-3.5,-3.2,-6.037
108.43463,-1.33,-6.03,-4.902
108.4452,-0.07,-7.53,-2.039
108.45577,0.7,-9.375,0.764
108.46634,0,-11.495,3.517
108.476963,-1.12,-13.624,7.122
108.487586,-3.15,-15.16,8.984
108.498209,-5.74,-16.004,8.124
108.508832,-7.91,-15.599,6.632
108.519455,-8.54,-13.892,3.806
108.530078,-7.7,-11.743,0.488
108.540701,-4.76,-9.059,-2.237
108.551324,-0.91,-6.213,-3.868
108.561947,4.06,-3.877,-3.811
108.57257,8.33,-2.247,-3.382
108.583204,12.25,-1.237,-1.853
108.593838,17.22,-1.156,0.507
108.604472,21.07,-1.094,3.788
108.615106,24.5,-0.644,6.07
108.62574,25.69,-0.011,7.319
108.636374,25.06,-0.344,8.398
108.647008,21.21,-1.722,8.155
108.657642,14.63,-3.863,8.204
108.668276,7.28,-5.692,8.095
108.67891,0,-7.781,5.025
108.689544,-5.04,-10.717,2.731
108.700178,-10.36,-14.282,1.178
108.710812,-12.88,-16.873,0.152
108.721474,-13.58,-17.53,-3.375
108.732136,-12.46,-16.562,-8.465
108.742798,-10.08,-14.454,-13.566
108.75346,-8.12,-11.113,-16.389
108.764122,-7.7,-6.738,-16.612
108.774784,-7.56,-2.346,-16.122
108.785446,-7,1.186,-14.789
108.796108,-5.04,3.445,-10.268
108.80677,-2.94,4.038,-5.97
108.817432,-2.03,3.313,-1.051
108.828094,-2.03,2.523,2.222
108.838756,-3.64,2.332,4.107
108.849457,-5.32,2.77,2.834
108.860158,-6.65,4.059,0.36
108.870859,-7.21,4.546,0.02
108.88156,-6.86,3.544,2.473
108.892261,-5.11,1.899,6.163
108.902962,-2.17,0.646,10.847
108.913663,1.75,-0.294,14.164
108.924364,5.95,0.331,15.056
108.935065,9.8,2.986,12.894
108.945766,12.32,6.185,9.265
108.956467,14.84,10.426,4.966
108.967168,16.94,14.44,1.551
108.977862,19.46,18.037,-0.303
108.988556,20.3,21.24,0.476
108.99925,19.88,22.469,3.18
109.009944,17.15,22.579,7.393
109.020638,12.53,22.511,11.006
109.031332,6.09,21.769,12.795
109.042026,-0.56,21.429,15.933
109.05272,-3.78,21.307,16.622
109.063414,-10.99,19.964,12.547
109.074108,-15.68,20.143,15.564
109.084802,-19.46,20.643,21.197
109.095496,-23.73,20.404,23.358
109.10619,-24.5,19.735,24.733
109.116896,-23.45,18.101,27.146
109.127602,-21,16.492,31.837
109.138308,-18.2,14.692,34.79
109.149014,-15.47,11.651,35.106
109.15972,-10.99,8.411,35.744
109.170426,-5.39,4.741,34.386
109.181132,-0.21,0.783,29.423
109.191838,3.36,-3.61,24.099
109.202544,6.65,-7.402,19.806
109.21325,9.38,-11.518,13.322
109.223956,10.22,-14.411,6.344
109.234662,10.64,-15.097,0.963
109.245387,10.5,-14.226,-4.783
109.256112,8.47,-12.418,-9.795
109.266837,4.62,-10.216,-12.606
109.277562,-2.24,-7.65,-13.859
109.288287,-10.15,-4.742,-14.626
109.299012,-18.06,-0.959,-15.522
109.309737,-24.08,2.865,-15.843
109.320462,-27.72,6.498,-15.487
109.331187,-28.98,9.657,-14.859
109.341912,-28.63,12.269,-13.545
109.352637,-28.14,13.842,-11.988
109.363362,-27.16,14.734,-10.196
109.374077,-25.55,15.408,-8.372
109.384792,-23.24,15.461,-6.656
109.395507,-21.07,15.177,-5.853
109.406222,-19.18,14.614,-4.673
109.416937,-17.36,13.409,-3.891
109.427652,-16.03,12.412,-3.071
109.438367,-14.49,11.451,-2.459
109.449082,-13.72,11.289,-2.345
109.459797,-14.98,10.166,-1.619
109.470512,-15.12,9.963,-0.873
109.481227,-17.57,8.84,-1.356
109.491942,-19.46,8.244,-0.394
109.502657,-22.75,6.853,-0.569
109.513364,-26.95,6.606,0.027
109.524071,-29.82,6.772,0.697
109.534778,-30.45,6.492,1.074
109.545485,-28.56,5.263,0.786
109.556192,-25.34,3.686,-0.345
109.566899,-20.37,2.202,-0.394
109.577606,-15.54,1.995,-1.638
109.588313,-11.13,1.751,-2.677
109.59902,-7.63,1.97,-2.709
109.609727,-5.11,1.553,-2.356
109.620434,-1.68,-0.625,-0.892
109.631141,1.75,-4.128,2.044
109.641842,3.36,-8.397,8.115
109.652543,3.99,-11.149,13.245
109.663244,3.36,-12.293,14.892
109.673945,3.43,-11.831,13.48
109.684646,3.15,-10.213,10.354
109.695347,1.61,-8.129,6.599
109.706048,-2.31,-6.869,3.48
109.716749,-6.3,-6.35,2.15
109.72745,-9.24,-6.005,2.211
109.738151,-11.76,-6.115,2.831
109.748852,-13.16,-5.611,4.413
109.759553,-14.14,-4.042,5.187
109.770254,-15.12,-1.978,4.769
109.780973,-14.98,0.451,3.491
109.791692,-14.84,3.796,1.451
109.802411,-14.56,7.173,0.838
109.81313,-15.47,9.927,1.75
109.823849,-16.52,12.392,2.683
109.834568,-17.64,13.747,4.272
109.845287,-19.18,13.873,6.782
109.856006,-19.46,13.298,10.448
109.866725,-20.44,12.236,13.246
109.877444,-20.65,10.569,15.44
109.888163,-21.14,9.418,16.73
109.898882,-22.12,8.311,19.378
109.90963,-17.57,8.547,21.267
109.920378,-16.45,6.506,15.505
109.931126,-15.33,4.536,14.589
109.941874,-14.63,3.405,19.792
109.952622,-16.03,1.256,23.109
109.96337,-16.38,-1.684,23.657
109.974118,-14.77,-4.327,24.541
109.984866,-11.06,-6.31,26.111
109.995614,-7.56,-8.776,25.179
110.006362,-5.11,-10.544,23.516
110.01711,-2.52,-11.627,22.401
110.027858,-0.84,-12.344,21.635
110.038599,1.12,-13.022,20.236
110.04934,1.89,-14.089,17.418
110.060081,2.31,-14.507,15.354
110.070822,2.17,-13.692,14.361
110.081563,2.8,-12.561,12.783
110.092304,5.25,-10.992,11.141
110.103045,8.05,-8.51,10.37
110.113786,10.78,-6.401,10.102
110.124527,13.37,-4.524,9.935
110.135268,14.21,-3.417,8.496
110.146009,13.16,-2.27,6.423
110.15675,9.59,-1.212,4.051
110.167491,5.25,-0.389,0.998
110.178214,-0.21,0.928,-2.04
110.188937,-6.86,1.67,-5.037
110.19966,-13.16,1.917,-8.049
110.210383,-18.55,1.827,-10.766
110.221106,-23.45,1.044,-13.179
110.231829,-26.95,-0.448,-12.376
110.242552,-28.07,-1.721,-10.397
110.253275,-26.95,-3.391,-8.985
110.263998,-24.29,-4.924,-7.55
110.274721,-21.35,-5.783,-5.498
110.285444,-17.29,-6.294,-3.811
110.296167,-13.93,-5.507,-3.032
110.30689,-12.25,-3.374,-3.438
110.317637,-11.62,-0.828,-3.771
110.328384,-10.85,0.928,-2.04
110.339131,-8.96,1.695,-0.341
110.349878,-8.4,1.415,1.245
110.360625,-8.89,0.969,2.161
110.371372,-9.45,1.947,2.262
110.382119,-11.13,2.36,1.127
110.392866,-11.34,1.837,0.466
110.403613,-11.41,0.487,-0.341
110.41436,-11.69,-1.156,-1.91
110.425107,-10.5,-3.074,-3.527
110.435861,-7.42,-3.939,-8.3
110.446615,-3.29,-3.514,-14.338
110.457369,0.77,-1.677,-18.705
110.468123,4.62,0.362,-22.611
110.478877,8.54,1.602,-23.6
110.489631,12.67,0.946,-21.086
110.500385,15.47,-0.627,-15.393
110.511139,17.01,-2.767,-8.093
110.521893,16.73,-3.593,-2.197
110.532647,16.03,-2.307,0.588
110.543401,13.86,0.126,1.302
110.554155,10.99,3.106,0.121
110.564909,6.44,5.644,-1.777
110.575663,-1.05,5.831,-2.028
110.586417,-10.29,4.712,-0.52
110.597171,-18.2,3.593,0.989
110.607925,-24.92,2.604,2.165
110.618679,-28.91,2.275,2.818
110.629433,-30.94,2.287,2.749
110.640187,-30.73,3.366,1.873
110.650941,-28.56,5.049,0.393
110.661695,-26.74,6.897,-0.419
110.672449,-25.27,9.257,-0.5
110.683203,-24.85,11.516,0.396
110.693957,-25.34,14.055,2.123
110.704678,-26.25,15.904,4.937
110.715399,-27.58,16.833,7.731
110.72612,-29.12,16.935,10.378
110.736841,-30.03,17.382,13.087
110.747562,-29.68,17.293,15.204
110.758283,-30.45,16.66,16.372
110.769004,-31.64,15.059,19.004
110.779725,-29.82,12.651,24.194
110.790446,-26.25,8.657,24.272
110.801167,-25.48,4.168,23.125
110.811888,-22.68,1.727,28.097
110.822609,-20.86,-1.172,31.637
110.83333,-17.36,-4.829,31.419
110.844015,-11.69,-9.031,26.626
110.8547,-6.09,-11.918,25.264
110.865385,0.77,-12.518,24.234
110.87607,6.16,-13.091,19.016
110.886755,11.2,-13.319,13.858
110.89744,15.54,-13.729,10.942
110.908125,17.43,-15.261,11.17
110.91881,22.26,-18.477,12.877
110.929495,28,-23.157,8.782
110.94018,31.99,-26.556,4.274
110.950865,35.21,-27.817,1.35
110.96155,38.78,-28.698,-5.345
110.972232,44.52,-30.933,-13.629
110.982914,53.34,-34.819,-19.005
110.993596,64.47,-39.64,-20.282
111.004278,76.23,-45.982,-18.983
111.01496,87.15,-53.622,-17.985
111.025642,96.46,-60.99,-18.928
111.036324,104.3,-67.798,-19.418
111.047006,109.27,-73.982,-19.016
111.057688,110.88,-77.984,-18.087
111.06837,110.6,-79.018,-17.061
111.079052,109.13,-77.221,-15.962
111.089734,104.72,-73.349,-14.142
111.100424,100.52,-67.497,-11.049
111.111114,94.22,-60.936,-8.754
111.121804,85.33,-54.338,-5.459
111.132494,74.41,-49.54,-2.836
111.143184,64.47,-46.247,-0.549
111.153874,55.79,-43.627,2.33
111.164564,49,-41.928,3.98
111.175254,41.79,-40.813,5.314
111.185944,35.63,-39.406,6.202
111.196634,29.54,-37.694,6.574
111.207324,24.29,-35.468,6.043
111.218014,20.02,-32.687,5.183
111.228726,16.66,-28.453,4.152
111.239438,14,-24.188,2.132
111.25015,11.06,-19.679,-0.058
111.260862,10.36,-15.368,0.489
111.271574,9.73,-12.485,1.068
111.282286,6.02,-10.661,0.395
111.292998,-0.21,-8.179,0.832
111.30371,-7.14,-4.128,0.836
111.314422,-11.83,0.689,0.122
111.325134,-14.42,5.713,-4.181
111.335846,-17.29,10.258,-8.995
111.346558,-20.23,14.807,-10.61
111.357249,-22.12,19.738,-13.579
111.36794,-24.01,25.548,-19.52
111.378631,-24.78,31.123,-24.934
111.389322,-25.2,36.775,-27.563
111.400013,-25.2,41.442,-27.024
111.410704,-23.03,45.644,-24.649
111.421395,-20.93,48.454,-22.447
111.432086,-19.88,50.288,-17.93
111.442777,-19.18,52.64,-13.535
111.453468,-19.18,55.714,-12.424
111.464159,-18.69,58.216,-12.907
111.47485,-19.32,59.566,-13.309
111.485541,-21.84,59.898,-13.179
111.496208,-25.9,58.832,-12.372
111.506875,-31.99,56.825,-10.664
111.517542,-37.87,53.423,-8.705
111.528209,-44.24,49.077,-6.629
111.538876,-49.91,44.024,-4.179
111.549543,-54.88,39.572,-1.907
111.56021,-58.31,35.712,-1.38
111.570877,-60.27,32.699,-2.835
111.581544,-60.41,30.152,-4.919
111.592211,-59.08,27.808,-7.749
111.602878,-57.54,26.072,-10.401
111.613545,-55.37,24.462,-11.751
111.624212,-52.71,22.483,-11.815
111.634861,-49.49,21.263,-10.538
111.64551,-44.73,20.282,-9.005
111.656159,-39.97,19.24,-7.127
111.666808,-35.49,18.348,-4.086
111.677457,-31.99,18.101,-1.073
111.688106,-29.33,19.306,0.561
111.698755,-26.81,22.051,-0.092
111.709404,-24.71,25.112,-1.329
111.720053,-23.66,28.551,-2.287
111.730702,-24.78,30.842,-2.381
111.741351,-27.44,32.829,-1.959
111.752,-31.78,33.766,-1.225
111.762627,-36.12,33.774,0.34
111.773254,-40.67,33.199,2.797
111.783881,-44.59,32.453,3.803
111.794508,-46.69,31.463,3.771
111.805135,-48.65,29.951,4.286
111.815762,-51.87,28.313,5.916
111.826389,-52.71,27.21,8.139
111.837016,-49.98,25.357,5.751
111.847643,-47.6,22.635,3.849
111.85827,-46.27,20.264,10.041
111.868897,-44.31,18.469,17.401
111.879524,-38.43,15.075,16.092
111.890151,-30.31,9.867,11.762
111.900771,-21.91,4.073,14.792
111.911391,-17.99,-1.222,19.829
111.922011,-15.82,-5.723,17.543
111.932631,-13.44,-11.368,13.278
111.943251,-10.78,-18.238,11.924
111.953871,-6.37,-26.015,14.107
111.964491,-1.54,-34.518,16.375
111.975111,4.41,-41.687,16.319
111.985731,9.52,-48.09,15.545
111.996351,14.56,-53.025,12.898
112.006971,18.34,-56.578,8.86
112.017591,20.93,-57.868,5.292
112.028222,21.7,-57.678,3.406
112.038853,20.16,-55.987,3.491
112.049484,16.8,-53.412,5.011
112.060115,13.86,-49.62,5.68
112.070746,10.15,-44.949,5.793
112.081377,5.53,-41.782,4.361
112.092008,-0.35,-38.275,2.207
112.102639,-7.14,-34.982,-0.34
112.11327,-13.79,-30.494,-4.026
112.123901,-21,-26.46,-7.153
112.134532,-27.58,-22.434,-9.429
112.145163,-33.74,-18.452,-11.854
112.155832,-38.85,-14.722,-14.466
112.166501,-43.05,-12.26,-15.525
112.17717,-46.69,-10.699,-15.107
112.187839,-48.16,-9.069,-14.678
112.198508,-47.67,-7.459,-14.536
112.209177,-45.64,-5.797,-13.888
112.219846,-42.84,-3.745,-13.028
112.230515,-39.48,-1.778,-11.686
112.241184,-36.33,-0.382,-9.521
112.251853,-33.32,1.499,-6.488
112.262522,-31.5,4.387,-5.126
112.273191,-30.59,8.454,-4.409
112.283863,-30.52,12.882,-4.126
112.294535,-30.03,17.403,-3.968
112.305207,-28.28,20.753,-4.017
112.315879,-25.69,23.774,-3.414
112.326551,-22.61,26.049,-1.804
112.337223,-20.44,27.935,-0.405
112.347895,-19.39,29.578,3.58
112.358567,-14.42,29.676,9.071
112.369239,-8.26,25.231,8.074
112.379911,-9.52,19.562,6.364
112.390583,-12.25,18.062,10.435
112.401255,-15.54,18.301,7.065
112.411927,-18.2,16.621,-6.381
112.422599,-20.16,13.833,-17.179
112.433263,-21.56,10.5,-20.041
112.443927,-23.87,6.607,-20.941
112.454591,-24.22,3.427,-24.274
112.465255,-24.22,0.832,-26.082
112.475919,-22.47,-0.02,-26.09
112.486583,-19.95,-0.559,-26.256
112.497247,-16.03,-1.605,-25.161
112.507911,-12.32,-3.044,-21.434
112.518575,-8.05,-4.341,-15.692
112.529239,-3.57,-3.996,-10.798
112.539903,0.7,-2.694,-7.299
112.550594,4.62,-0.864,-3.564
112.561285,7.28,0.953,0.239
112.571976,9.31,3.698,2.003
112.582667,9.31,6.022,3.336
112.593358,7.91,8.727,4.524
112.604049,4.69,10.276,5.011
112.61474,-0.35,11.201,4.605
112.625431,-5.18,10.892,4.337
112.636122,-10.43,10.994,3.36
112.646813,-15.26,10.466,1.917
112.657504,-19.18,9.351,0.583
112.668195,-22.75,8.199,-0.545
112.678922,-25.34,7.376,-2.325
112.689649,-27.37,7.201,-4.559
112.700376,-28.56,7.039,-6.862
112.711103,-29.05,6.244,-7.997
112.72183,-28.07,5.21,-8.18
112.732557,-26.46,4.058,-8.098
112.743284,-23.24,3.19,-7.612
112.754011,-18.69,2.854,-7.316
112.764738,-14.7,2.505,-6.951
112.775465,-11.9,2.092,-5.815
112.786192,-11.13,1.577,-3.702
112.796919,-11.97,1.573,-0.86
112.807685,-13.23,2.068,0.365
112.818451,-14.21,3.256,1.285
112.829217,-13.93,3.804,4.225
112.839983,-11.62,4.182,8.13
112.850749,-5.81,5.383,12.606
112.861515,1.33,7.074,17.525
112.872281,7.56,9.171,20.951
112.883047,12.67,11.783,21.056
112.893813,14.63,15.038,17.507
112.904579,12.04,19.433,13.946
112.915345,6.3,24.21,12.656
112.926111,4.9,27.397,11.512
112.936862,3.08,27.312,10.787
112.947613,3.64,26.011,16.954
112.958364,5.18,24.337,24.833
112.969115,5.88,23.024,28.653
112.979866,6.3,23.244,32.246
112.990617,7.91,25.308,34.245
113.001368,8.89,27.554,31.585
113.012119,10.08,29.844,26.657
113.02287,11.41,31.494,22.541
113.033621,11.76,32.118,17.391
113.044372,10.92,32.308,11.881
113.055123,9.31,32.068,6.792
113.065874,7.28,31.706,1.184
113.076652,4.97,30.533,-5.065
113.08743,1.82,28.444,-10.551
113.098208,-1.4,25.788,-14.431
113.108986,-5.11,21.209,-17.087
113.119764,-8.26,16.671,-19.166
113.130542,-10.78,11.757,-20.317
113.14132,-12.95,6.793,-21.192
113.152098,-14.35,2.11,-21.236
113.162876,-14.91,-2.602,-19.508
113.173654,-14.77,-6.904,-17.281
113.184432,-14.77,-10.48,-15.14
113.19521,-13.58,-13.594,-13.201
113.205978,-12.32,-15.893,-11.048
113.216746,-10.08,-17.028,-9.044
113.227514,-8.82,-17.494,-7.207
113.238282,-6.09,-17.385,-5.411
113.24905,-4.41,-16.111,-3.765
113.259818,-3.64,-14.225,-2.366
113.270586,-3.71,-12.279,-1.312
113.281354,-4.62,-11.155,0.379
113.292122,-5.25,-11.009,1.968
113.30289,-6.65,-11.71,3.124
113.313658,-8.54,-12.817,3.355
113.324426,-11.27,-14.22,3.25
113.335194,-14.14,-16.122,2.346
113.345967,-16.24,-17.887,0.258
113.35674,-18.62,-19.25,-4.105
113.367513,-21.07,-19.964,-6.505
113.378286,-20.51,-20.097,-5.747
113.389059,-17.29,-21.176,-7.288
113.399832,-14.21,-22.101,-9.299
113.410605,-10.99,-20.783,-7.503
113.421378,-5.67,-16.59,-10.318
113.432151,-1.19,-10.834,-19.183
113.442924,3.99,-3.848,-27.76
113.453697,9.31,3.653,-34.825
113.46447,16.1,9.958,-39.542
113.475249,24.43,15.833,-43.837
113.486028,31.71,21.084,-45.399
113.496807,37.52,25.078,-41.851
113.507586,41.65,28.773,-35.797
113.518365,41.93,32.391,-30.113
113.529144,40.18,35.535,-22.948
113.539923,36.68,37.88,-14.076
113.550702,31.43,39.284,-5.512
113.561481,24.92,39.764,2.249
113.57226,18.34,39.472,8.737
113.583039,11.2,38.565,14.69
113.593818,6.16,36.048,20.501
113.604599,0.42,32.447,25.197
113.61538,-4.41,28.648,29.005
113.626161,-8.4,24.622,31.281
113.636942,-11.48,21.094,30.73
113.647723,-13.65,18.637,27.738
113.658504,-15.12,17.391,21.903
113.669285,-15.33,16.251,15.873
113.680066,-16.31,15.333,10.594
113.690847,-17.08,14.972,4.986
113.701628,-16.8,15.51,-0.89
113.712409,-15.82,16.394,-5.497
113.72319,-13.65,17.962,-8.348
113.733971,-11.62,20.456,-11.604
113.744752,-8.68,22.694,-13.413
113.755501,-6.23,25.443,-13.284
113.76625,-3.36,28.083,-12.534
113.776999,-1.12,30.902,-11.184
113.787748,0.7,33.671,-9.558
113.798497,3.64,36.733,-8.379
113.809246,6.93,39.701,-7.073
113.819995,9.38,42.264,-5.484
113.830744,10.64,44.888,-3.031
113.841493,9.31,47.78,0.322
113.852242,6.86,49.106,3.683
113.862991,4.27,49.52,6.173
113.87374,1.33,48.706,9.583
113.884461,-1.12,46.127,13.322
113.895182,-3.71,42.62,16.684
113.905903,-4.83,39.149,17.423
113.916624,-6.02,35.601,16.584
113.927345,-7.14,32,15.238
113.938066,-9.24,28.383,13.179
113.948787,-11.13,25.41,11.091
113.959508,-13.09,21.983,9.563
113.970229,-13.65,18.966,7.325
113.98095,-14.14,16.448,4.677
113.991671,-13.72,15.333,4.552
114.002392,-11.97,15.126,4.515
114.013072,-9.1,15.487,5.29
114.023752,-4.41,15.284,8.453
114.034432,3.01,15.074,13.675
114.045112,7.56,14.54,20.334
114.055792,11.48,14.716,29.818
114.066472,13.51,14.514,35.398
114.077152,13.02,14.988,36.335
114.087832,10.22,16.691,36.351
114.098512,5.32,19.254,35.523
114.109192,0.91,22.757,31.378
114.119872,-2.66,26.26,24.817
114.130552,-4.76,29.442,19.265
114.141232,-5.32,31.578,14.808
114.15187,-4.34,32.932,10.356
114.162508,-3.57,33.438,5.47
114.173146,-1.75,33.547,1.224
114.183784,-0.21,33.879,-2.271
114.194422,0.42,33.68,-6.785
114.20506,0.28,33.764,-10.892
114.215698,-0.56,33.703,-14.173
114.226336,-1.89,33.78,-16.221
114.236974,-4.06,33.691,-16.521
114.247612,-6.72,33.35,-15.799
114.25825,-9.38,32.917,-13.743
114.268888,-12.18,32.568,-10.961
114.279508,-14.84,31.733,-6.63
114.290128,-16.45,31.158,-1.756
114.300748,-18.27,30.036,2.595
114.311368,-19.25,29.586,6.354
114.321988,-19.81,29.027,9.525
114.332608,-20.16,28.03,11.553
114.343228,-19.46,26.716,12.956
114.353848,-17.15,25.548,13.532
114.364468,-14.7,23.456,13.305
114.375088,-12.25,20.552,12.438
114.385708,-8.89,17.758,10.95
114.396328,-6.72,14.786,8.862
114.406955,-4.48,10.812,6.811
114.417582,-3.15,7.344,3.498
114.428209,-3.29,3.694,0.012
114.438836,-3.64,1.038,-2.66
114.449463,-5.39,-0.65,-6.796
114.46009,-7.49,-1.753,-10.616
114.470717,-9.94,-1.64,-14.079
114.481344,-13.3,-1.182,-17.481
114.491971,-15.54,0.399,-19.192
114.502598,-16.52,1.96,-18.775
114.513225,-15.4,3.347,-16.967
114.523852,-13.02,5.075,-13.463
114.534501,-8.05,5.878,-9.554
114.54515,-2.52,5.643,-7.819
114.555799,0.7,6.207,-5.374
114.566448,5.32,8.941,-2.333
114.577097,9.52,12.898,-4.62
114.587746,12.11,16.847,-9.682
114.598395,14.14,21.968,-13.328
114.609044,14.63,27.125,-17.181
114.619693,14.7,31.261,-20.077
114.630342,16.24,33.661,-21.999
114.640991,17.43,34.557,-23.049
114.65164,18.48,34.132,-20.637
114.662275,19.74,33.703,-17.798
114.67291,21.07,32.843,-15.746
114.683545,22.19,31.429,-12.157
114.69418,22.75,29.892,-6.671
114.704815,22.26,28.137,-1.151
114.71545,20.86,26.549,3.828
114.726085,17.92,25.016,8.889
114.73672,14.63,23.541,12.823
114.747355,10.99,22.475,14.838
114.75799,6.72,20.67,15.799
114.768625,2.03,19.418,16.858
114.77926,-3.36,17.65,16.404
114.789895,-9.87,16.226,14.803
114.800528,-16.45,15.76,13.014
114.811161,-22.54,15.35,10.099
114.821794,-27.79,15.487,7.706
114.832427,-31.36,15.965,5.8
114.84306,-33.25,17.628,4.032
114.853693,-34.02,19.626,1.968
114.864326,-33.11,22.023,0.471
114.874959,-31.57,24.626,-0.989
114.885592,-29.33,26.949,-2.072
114.896225,-27.09,29.99,-2.389
114.906858,-25.06,32.423,-2.884
114.917491,-22.26,34.625,-3.277
114.928149,-18.48,36.511,-3.087
114.938807,-15.4,37.825,-2.073
114.949465,-12.53,38.761,-1.339
114.960123,-10.08,39.621,0.234
114.970781,-6.86,40.627,2.188
114.981439,-4.55,41.702,2.946
114.992097,-3.99,41.966,3.064
115.002755,-2.73,41.726,4.017
115.013413,-1.96,41.662,4.787
115.024071,-1.33,41.321,4.301
115.034729,-1.61,40.62,5.456
115.045387,-1.96,40.595,6.803
115.056038,-1.54,41.175,7.545
115.066689,-2.17,42.068,9.337
115.07734,-4.9,42.839,11.818
115.087991,-8.89,43.978,14.223
115.098642,-10.64,44.668,15.553
115.109293,-10.29,44.218,15.687
115.119944,-10.64,43.371,18.878
115.130595,-11.34,40.788,20.626
115.141246,-10.01,38.181,21.304
115.151897,-7.35,35.906,23.319
115.162548,-6.79,35.079,21.965
115.173199,-8.82,34.726,19.131
115.18385,-9.38,34.924,18.81
115.194512,-10.01,34.101,18.239
115.205174,-11.76,31.899,21.049
115.215836,-12.95,28.705,26.67
115.226498,-13.3,24.914,32.043
115.23716,-13.58,21.338,36.601
115.247822,-11.97,18.132,41.083
115.258484,-10.99,14.925,45.564
115.269146,-11.55,11.3,49.19
115.279808,-11.55,7.391,49.993
115.29047,-10.36,4.114,47.212
115.301132,-10.22,2.11,42.451
115.311794,-9.66,2.02,34.901
115.322492,-8.96,2.708,25.355
115.33319,-7,3.935,13.559
115.343888,-3.78,4.972,2.44
115.354586,0.98,6.033,-7.608
115.365284,5.81,6.903,-16.979
115.375982,10.01,8.228,-25.702
115.38668,14.14,9.436,-31.744
115.397378,18.27,10.469,-36.395
115.408076,21.56,11.677,-38.812
115.418774,24.5,12.979,-38.938
115.429472,27.51,14.086,-36.752
115.44017,31.01,15.992,-32.649
115.450868,34.58,17.684,-26.522
115.46155,37.59,19.798,-19.965
115.472232,37.94,23.614,-13.393
115.482914,33.53,28.339,-6.731
115.493596,24.99,33.575,-1.756
115.504278,11.83,37.087,1.706
115.51496,-1.12,38.71,5.404
115.525642,-12.46,38.702,7.464
115.536324,-20.79,37.295,7.784
115.547006,-27.16,35.381,8.158
115.557688,-32.27,32.1,7.011
115.56837,-35.14,28.26,5.409
115.579052,-37.52,24.03,3.597
115.589734,-39.48,20.279,1.088
115.600423,-41.72,16.921,-1.637
115.611112,-43.4,13.097,-3.732
115.621801,-46.2,9.861,-5.938
115.63249,-47.67,7.987,-8.614
115.643179,-48.3,6.255,-11.691
115.653868,-47.81,4.9,-14.489
115.664557,-45.85,3.538,-17.644
115.675246,-41.93,2.377,-20.336
115.685935,-37.94,0.467,-21.597
115.696624,-34.16,-2.067,-21.333
115.707313,-30.1,-4.273,-20.514
115.718002,-25.2,-5.992,-21.243
115.728697,-21.28,-6.71,-22.01
115.739392,-17.29,-4.991,-23.697
115.750087,-12.81,-3.167,-27.995
115.760782,-8.54,-0.621,-33.162
115.771477,-3.5,3.214,-38.385
115.782172,2.66,7.179,-42.732
115.792867,8.47,10.824,-47.279
115.803562,14,14.193,-51.873
115.814257,19.81,15.653,-52.895
115.824952,24.08,17.356,-51.671
115.835647,27.02,20.398,-49.571
115.846342,26.95,24.631,-48.185
115.857073,26.46,28.602,-45.708
115.867804,23.8,31.137,-41.138
115.878535,20.02,32.322,-34.959
115.889266,15.61,32.063,-28.252
115.899997,10.85,31.233,-21.93
115.910728,7.49,29.997,-16.532
115.921459,3.01,28.671,-12.643
115.93219,-0.42,27.925,-9.221
115.942921,-2.52,27.837,-5.896
115.953652,-5.39,27.975,-2.246
115.964383,-7.28,27.817,1.067
115.975114,-8.75,28.308,3.925
115.985838,-10.15,29.444,5.547
115.996562,-10.15,31.176,6.208
116.007286,-10.43,33.369,6.666
116.01801,-10.22,35.048,6.82
116.028734,-9.59,36.35,6.694
116.039458,-7,37.514,6.544
116.050182,-4.76,38.872,6.499
116.060906,-4.13,40.559,4.593
116.07163,-4.55,42.61,3.035
116.082354,-5.95,45.027,0.618
116.093078,-7.91,47.269,-1.616
116.103802,-10.15,48.919,-2.107
116.114526,-12.67,48.769,-2.063
116.125282,-15.12,47.889,-1.507
116.136038,-16.17,46.632,-1.231
116.146794,-16.52,47.07,-1.296
116.15755,-17.15,47.865,-2.578
116.168306,-18.69,49.041,-4.005
116.179062,-19.04,49.685,-5.242
116.189818,-18.41,50.03,-5.181
116.200574,-16.73,49.697,-4.102
116.21133,-15.4,50.014,-3.478
116.222086,-13.93,50.983,-2.525
116.232842,-13.44,52.309,-2.789
116.243598,-13.65,52.974,-2.53
116.254343,-13.51,52.163,-1.962
116.265088,-13.58,50.148,-0.611
116.275833,-13.37,46.823,1.717
116.286578,-13.72,42.485,2.942
116.297323,-14.14,37.59,3.287
116.308068,-14.49,33.308,3.385
116.318813,-13.3,28.219,3.625
116.329558,-10.36,23.434,4.559
116.340303,-7.49,19.234,5.808
116.351048,-3.29,16.192,6.125
116.361793,0.14,14.505,5.614
116.372538,3.29,12.604,4.71
116.383283,5.6,10.637,3.368
116.394027,6.37,8.702,1.037
116.404771,7.14,7.928,0.189
116.415515,6.93,8.39,1.195
116.426259,6.37,8.654,2.521
116.437003,4.13,7.352,5.064
116.447747,0.42,4.746,10.575
116.458491,-4.34,2.829,16.207
116.469235,-9.24,2.318,20.311
116.479979,-12.04,3.04,23.068
116.490723,-14.63,4.107,27.095
116.501467,-17.71,5.45,31.17
116.512211,-20.09,7.239,33.12
116.522967,-22.12,9.818,31.798
116.533723,-23.31,12.777,29.121
116.544479,-23.94,15.579,23.715
116.555235,-22.75,18.959,16.635
116.565991,-21.21,22.652,9.396
116.576747,-18.55,26.832,1.817
116.587503,-15.61,29.844,-5.186
116.598259,-11.13,32.232,-10.665
116.609015,-7.07,33.05,-14.501
116.619771,-3.08,32.571,-16.22
116.630527,0.98,31.318,-17.579
116.641283,4.13,29.291,-18.576
116.652012,7.77,28.009,-19.371
116.662741,11.97,26.286,-19.674
116.67347,18.27,23.812,-18.547
116.684199,24.78,22.017,-13.604
116.694928,27.72,19.601,-8.77
116.705657,30.1,16.82,-4.284
116.716386,30.66,14.294,-1.247
116.727115,30.17,11.747,0.294
116.737844,28.42,9.756,0.299
116.748573,25.55,9.29,-0.281
116.759302,21.07,8.552,-2.544
116.770031,15.68,8.693,-4.154
116.78076,10.08,9.918,-4.648
116.791461,5.39,12.294,-4.016
116.802162,0.42,13.754,-2.621
116.812863,-2.52,14.663,-1.324
116.823564,-6.51,15.308,-0.144
116.834265,-11.13,15.519,0.675
116.844966,-16.45,14.663,-0.116
116.855667,-21,13.495,-0.748
116.866368,-24.78,12.226,-1.612
116.877069,-27.58,10.668,-3.663
116.88777,-30.52,7.692,-5.325
116.898471,-33.6,3.58,-4.984
116.909172,-33.74,0.08,-6.099
116.919873,-32.34,-2.815,-7.818
116.930592,-30.03,-4.669,-8.997
116.941311,-27.93,-6.283,-9.922
116.95203,-24.78,-8.071,-9.455
116.962749,-21.56,-10.5,-8.177
116.973468,-19.25,-14.011,-6.806
116.984187,-17.22,-16.294,-6.356
116.994906,-14.91,-17.332,-7.321
117.005625,-11.76,-16.878,-9.089
117.016344,-7.28,-16.23,-11.96
117.027063,-3.99,-16.676,-14.669
117.037782,-1.54,-18.01,-15.97
117.048486,0.56,-19.284,-17.616
117.05919,2.38,-21.032,-20.199
117.069894,4.48,-22.833,-22.08
117.080598,5.67,-25.371,-23.807
117.091302,5.04,-30.412,-25.052
117.102006,3.01,-39.945,-24.6
117.11271,0.35,-52.799,-22.246
117.123414,-0.7,-65.97,-21.726
117.134118,0.7,-76.387,-25.126
117.144822,3.85,-82.089,-30.681
117.155526,5.95,-84.698,-37.254
117.16623,6.65,-88.101,-42.545
117.176934,5.53,-93.591,-41.238
117.187638,3.29,-96.262,-34.957
117.198313,0.35,-95.074,-30.411
117.208988,-0.49,-88.086,-26.905
117.219663,1.26,-77.336,-23.374
117.230338,3.22,-66.006,-17.894
117.241013,3.57,-55.101,-10
117.251688,4.69,-44.613,-1.754
117.262363,8.05,-34.726,5.463
117.273038,10.29,-25.82,13.004
117.283713,10.92,-18.411,20.565
117.294388,10.71,-12.19,25.998
117.305063,7.35,-8.211,28.832
117.315726,-0.07,-9.322,30.698
117.326389,-10.15,-15.015,33.959
117.337052,-19.39,-21.673,35.841
117.347715,-26.6,-26.924,33.778
117.358378,-31.22,-30.984,29.792
117.369041,-34.79,-33.649,26.764
117.379704,-37.8,-34.74,24.083
117.390367,-38.92,-34.777,21.873
117.40103,-40.11,-34.538,19.712
117.411693,-40.32,-33.123,17.332
117.422356,-40.74,-31.603,14.756
117.433019,-41.51,-30.086,12.607
117.443658,-42.35,-29.024,11.017
117.454297,-41.86,-28.331,10.713
117.464936,-40.46,-28.059,11.188
117.475575,-38.57,-27.803,12.157
117.486214,-35,-26.834,11.901
117.496853,-30.66,-24.965,10.169
117.507492,-25.48,-22.387,7.639
117.518131,-19.74,-19.938,5.441
117.52877,-14.35,-17.46,3.887
117.539409,-11.69,-16.013,2.934
117.550048,-11.06,-17.067,2.464
117.560687,-12.04,-19.841,3.681
117.571326,-14.28,-22.569,5.048
117.581975,-17.5,-24.662,6.029
117.592624,-19.32,-25.465,5.745
117.603273,-21.7,-24.573,5.121
117.613922,-23.87,-22.61,4.472
117.624571,-25.06,-20.599,3.547
117.63522,-24.36,-17.801,2.192
117.645869,-22.61,-13.949,1.308
117.656518,-19.88,-9.805,-0.023
117.667167,-17.15,-4.854,-1.496
117.677816,-13.3,0.17,-2.173
117.688465,-9.24,5.076,-2.588
117.699114,-5.53,11.167,-2.864
117.70974,-1.12,17.136,-2.452
117.720366,3.5,23.369,-1.921
117.730992,8.61,29.95,-1.756
117.741618,14.21,36.706,-1.773
117.752244,20.72,43.644,-1.616
117.76287,26.74,49.84,0.33
117.773496,31.92,54.71,3.747
117.784122,35.56,59.074,6.009
117.794748,37.45,63.632,7.168
117.805374,38.15,67.221,8.583
117.816,38.01,70.104,9.163
117.826626,36.19,71.779,8.534
117.837252,33.6,72.715,6.851
117.847899,30.24,73.781,4.835
117.858546,26.95,75.03,2.994
117.869193,23.24,75.561,2.804
117.87984,17.85,74.329,5.358
117.890487,13.72,72.407,9
117.901134,10.01,69.302,12.504
117.911781,7.98,66.176,15.72
117.922428,7.21,63.601,17.825
117.933075,8.12,61.521,17.529
117.943722,9.24,58.735,16.398
117.954369,11.06,55.754,15.162
117.965016,12.53,51.93,14.274
117.975647,13.3,47.907,12.499
117.986278,13.51,43.491,9.73
117.996909,13.16,39.667,7.634
118.00754,12.74,35.263,6.005
118.018171,10.85,31.301,3.884
118.028802,8.61,28.414,2.522
118.039433,6.51,25.129,0.593
118.050064,5.04,22.229,-0.701
118.060695,4.62,19.435,-0.98
118.071326,4.76,17.489,-0.826
118.081957,4.48,16.569,-0.846
118.092588,5.18,17.132,-0.817
118.103219,5.46,17.797,-0.558
118.11385,5.46,18.28,0.735
118.124481,5.46,18.645,2.293
118.135112,4.69,18.97,4.482
118.145743,4.2,19.104,7.349
118.156374,4.69,18.829,9.717
118.167005,5.74,19.23,12.276
118.177636,8.05,19.839,14.871
118.188267,10.78,20.711,16.375
118.198898,12.6,20.857,17.965
118.209529,14.21,20.452,19.457
118.22016,15.47,19.382,20.69
118.230791,16.24,18.202,21.335
118.241461,15.47,17.488,21.351
118.252131,13.37,17.05,20.208
118.262801,11.06,16.202,18.566
118.273471,8.19,15.075,17.301
118.284141,5.25,12.565,16.218
118.294811,2.59,10.265,14.747
118.305481,0.77,7.447,13.397
118.316151,-0.84,4.665,11.84
118.326821,-1.96,1.696,10.535
118.337491,-3.43,-0.461,9.87
118.348161,-4.9,-1.686,7.948
118.358831,-7.14,-3.154,6.196
118.369503,-8.61,-4.018,3.841
118.380175,-10.71,-4.764,1.221
118.390847,-12.04,-5.17,-0.912
118.401519,-13.23,-4.814,-3.337
118.412191,-13.44,-3.476,-6.086
118.422863,-14.14,-1.668,-7.473
118.433535,-17.22,-0.759,-8.592
118.444207,-20.58,0.213,-10.482
118.454879,-24.57,1.673,-11.504
118.465551,-28.49,3.421,-12.547
118.476223,-32.55,4.758,-15.296
118.486895,-35.42,5.411,-18.593
118.497567,-36.4,6.607,-22.149
118.508264,-35.77,8.126,-27.141
118.518961,-33.04,9.873,-33.017
118.529658,-28.56,11.815,-38.788
118.540355,-22.54,14.146,-44.347
118.551052,-15.54,15.183,-47.008
118.561749,-9.03,15.864,-48.451
118.572446,-2.45,16.189,-48.678
118.583143,3.36,16.157,-47.689
118.59384,8.12,15.65,-45.219
118.604537,11.9,13.988,-41.034
118.615234,15.12,11.337,-35.673
118.625931,18.2,8.422,-28.013
118.636643,20.02,5.832,-20.58
118.647355,20.65,3.619,-12.867
118.658067,20.79,1.394,-6.294
118.668779,20.3,-0.446,-1.5
118.679491,20.58,-1.999,3.273
118.690203,19.74,-3.474,7.206
118.700915,17.71,-5.079,10.264
118.711627,15.61,-5.237,13.577
118.722339,10.71,-4.779,15.008
118.733051,4.9,-4.617,14.895
118.743763,-1.96,-4.507,14.274
118.754475,-8.4,-4.406,14.505
118.765187,-14.28,-4.734,13.95
118.775943,-19.32,-5.728,13.135
118.786699,-22.96,-6.202,12.198
118.797455,-23.59,-7.354,11.071
118.808211,-22.89,-9.045,10.986
118.818967,-22.33,-9.824,11.773
118.829723,-22.19,-10.29,11.193
118.840479,-21.07,-10.148,10.792
118.851235,-19.32,-8.794,11.173
118.861991,-18.9,-7.415,10.207
118.872747,-18.69,-6.227,8.711
118.883503,-18.69,-4.111,6.383
118.894259,-19.25,-2.153,3.743
118.905015,-19.81,-0.572,0.823
118.91581,-20.16,1.739,-2.608
118.926605,-19.39,5.206,-6.545
118.9374,-18.69,8.664,-10.84
118.948195,-17.85,12.232,-14.547
118.95899,-16.73,15.321,-17.556
118.969785,-15.12,17.632,-19.779
118.98058,-13.02,19.599,-20.853
118.991375,-10.08,20.223,-22.378
119.00217,-6.16,19.436,-23.157
119.012965,-2.1,18.682,-22.508
119.02376,2.1,17.474,-21.299
119.034573,4.48,15.832,-19.243
119.045386,4.2,14.835,-17.216
119.056199,3.01,14.953,-15.062
119.067012,1.47,15.735,-13.858
119.077825,0.14,17.8,-11.859
119.088638,0.07,20.119,-10.1
119.099451,1.75,21.113,-9.285
119.110264,2.31,20.96,-3.981
119.121077,4.83,20.689,4.003
119.13189,7.84,19.615,8.079
119.142703,12.18,16.234,11.534
119.153516,17.01,11.191,20.383
119.164329,21.91,7.222,29.99
119.17512,26.18,2.88,34.057
119.185911,28.84,-0.749,34.484
119.196702,29.47,-3.251,37.383
119.207493,27.79,-4.354,39.606
119.218284,24.36,-4.605,38.211
119.229075,18.9,-3.791,34.8
119.239866,11.55,-1.865,30.733
119.250657,5.18,0.153,24.123
119.261448,-0.77,2.18,16.662
119.272239,-5.11,4.499,11.171
119.28303,-7.98,6.233,6.572
119.293821,-10.64,6.975,2.367
119.304612,-12.88,7.275,-0.139
119.31539,-15.61,7.222,-3.063
119.326168,-17.5,6.905,-6.104
119.336946,-18.62,6.487,-8.168
119.347724,-19.74,4.901,-9.656
119.358502,-20.3,3.502,-10.187
119.36928,-21.35,2.533,-9.931
119.380058,-21.49,1.365,-9.355
119.390836,-20.58,0.315,-9.043
119.401614,-18.27,-0.431,-6.829
119.412392,-17.64,-2.17,-4.221
119.42317,-17.15,-3.512,-1.046
119.433948,-17.36,-4.257,2.377
119.444687,-18.48,-3.9,4.785
119.455426,-19.95,-3.847,5.292
119.466165,-18.48,-3.799,3.808
119.476904,-17.01,-4.176,3.528
119.487643,-16.31,-3.738,4.672
119.498382,-17.08,-3.471,3.155
119.509121,-18.06,-2.826,1.918
119.51986,-17.43,-1.508,1.298
119.530599,-17.5,-0.061,0.345
119.541338,-18.48,1.075,0.758
119.552077,-17.71,1.991,1.204
119.562816,-16.24,2.458,1.784
119.573555,-15.05,2.012,2.7
119.58427,-14.07,1.112,4.176
119.594985,-13.93,1.294,4.351
119.6057,-14.84,1.874,2.676
119.616415,-16.52,3.329,-0.337
119.62713,-17.36,5.547,-2.434
119.637845,-15.96,7.761,-4.105
119.64856,-13.16,9.703,-5.042
119.659275,-9.52,10.266,-6.222
119.66999,-5.6,9.954,-7.272
119.680705,-2.31,8.385,-8.046
119.69142,0.35,7.184,-10.106
119.702135,1.12,6.145,-14.696
119.71285,-0.77,6.802,-18.419
119.723565,-3.57,8.115,-23.447
119.73428,-7.07,9.655,-30.568
119.744995,-9.87,11.28,-34.546
119.75571,-11.76,12.829,-34.06
119.766425,-11.9,14.155,-34.323
119.77714,-10.01,15.347,-38.662
119.787855,-5.88,17.69,-39.458
119.79857,-0.42,21.198,-37.986
119.809285,4.76,23.25,-37.127
119.82,10.57,24.248,-33.112
119.830715,14.77,24.939,-25.741
119.841417,17.64,25.552,-18.738
119.852119,19.04,25.573,-12.408
119.862821,19.95,24.426,-6.71
119.873523,19.11,23.028,-1.199
119.884225,17.15,21.435,2.998
119.894927,14.98,20.041,5.666
119.905629,11.97,18.707,6.781
119.916331,8.89,17.109,7.779
119.927033,4.48,14.011,8.015
119.937735,0.7,12.32,7.93
119.948437,-3.57,11.095,7.216
119.959139,-7.21,10.272,6.645
119.969841,-10.92,10.118,5.907
119.980543,-14.63,10.665,4.013
119.991245,-16.87,12.003,2.472
120.001947,-18.2,13.564,1.681
120.012649,-20.02,15.794,0.724
120.023351,-21,17.724,-0.144
120.034053,-20.79,18.819,-0.307
120.044755,-21.35,19.622,-0.023
120.055457,-21.49,19.796,-0.206
120.066159,-21.28,19.59,-0.242
120.076861,-19.81,19.395,-0.347
120.087563,-17.64,19.622,-0.023
120.098265,-17.08,20.847,-0.518
120.10894,-17.15,22.209,-0.988
120.119615,-17.57,23.628,-1.378
120.13029,-18.41,24.237,-1.2
120.140965,-19.32,24.634,-0.632
120.15164,-19.18,24.557,0.207
120.162315,-19.46,24.05,1.469
120.17299,-19.39,23.795,5.333
120.183665,-18.34,22.799,9.777
120.19434,-16.73,21.396,13.297
120.205015,-13.51,19.604,16.607
120.21569,-7.98,17.537,19.867
120.226365,-0.84,16.908,23.026
120.23704,6.51,17.679,25.507
120.247678,11.13,20.457,26.282
120.258316,13.93,24.143,24.728
120.268954,16.1,27.93,20.989
120.279592,18.06,30.407,15.81
120.29023,21.21,33.022,16.698
120.300868,25.34,34.458,20.647
120.311506,28.28,33.129,23.754
120.322144,30.73,30.672,28.012
120.332782,31.08,25.806,32.627
120.34342,28.98,19.895,38.337
120.354058,24.57,14.32,43.751
120.364696,20.02,8.972,45.865
120.375334,15.68,4.414,44.706
120.385955,13.16,1.34,42.387
120.396576,13.09,0.054,35.976
120.407197,13.65,0.47,27.164
120.417818,14.14,2.261,19.022
120.428439,14.77,5.103,10.567
120.43906,14.77,8.195,2.298
120.449681,15.19,10.214,-4.312
120.460302,15.47,11.689,-9.454
120.470923,15.4,12.763,-13.529
120.481544,13.79,13.566,-16.871
120.492165,13.02,14.579,-19.393
120.502786,13.93,15.244,-22.759
120.513381,16.59,15.556,-24.125
120.523976,18.27,15.945,-23.915
120.534571,16.8,16.776,-24.194
120.545166,13.58,17.798,-23.943
120.555761,11.27,19.506,-21.936
120.566356,8.54,19.826,-19.321
120.576951,5.11,19.032,-14.414
120.587546,1.75,18.137,-9.739
120.598141,-1.05,16.467,-4.702
120.608736,-4.27,14.809,0.266
120.619331,-9.1,13.577,4.029
120.629926,-15.19,12.511,7.253
120.640521,-21.07,11.169,8.011
120.651116,-25.55,10.021,8.875
120.661712,-28.49,9.246,8.028
120.672308,-32.48,7.373,6.56
120.682904,-36.26,5.475,5.23
120.6935,-39.69,3.106,2.538
120.704096,-41.65,0.928,-0.831
120.714692,-43.89,-0.747,-5.036
120.725288,-48.3,-1.169,-9.091
120.735884,-52.71,-0.854,-14.509
120.74648,-54.53,0.261,-18.008
120.757076,-54.32,1.388,-17.952
120.767672,-52.01,2.617,-17.664
120.77829,-47.11,4.154,-17.109
120.788908,-41.16,6.218,-15.11
120.799526,-35.56,7.078,-12.328
120.810144,-29.26,6.997,-11.063
120.820762,-25.2,4.638,-9.773
120.83138,-21.7,4.018,-6.257
120.841998,-17.64,5.538,-8.833
120.852616,-11.97,9.206,-18.35
120.863234,-4.2,13.978,-27.673
120.873852,5.32,20.027,-34.568
120.88447,15.26,25.35,-41.377
120.895088,25.76,30.22,-45.209
120.905711,36.26,35.191,-45.186
120.916334,43.26,39.936,-39.444
120.926957,45.78,44.796,-28.707
120.93758,43.26,49.797,-18.372
120.948203,38.08,52.418,-9.451
120.958826,32.27,53.331,-0.121
120.969449,24.85,52.303,8.938
120.980072,17.57,51.05,14.83
120.990695,10.57,50.288,17.539
121.001318,3.29,47.62,18.561
121.011941,-3.57,44.153,18.874
121.022564,-9.1,39.815,18.891
121.033187,-12.6,35.654,18.299
121.043846,-14.35,31.996,16.872
121.054505,-15.75,28.853,14.541
121.065164,-15.89,26.554,11.861
121.075823,-17.43,24.173,9.238
121.086482,-19.25,22.401,6.793
121.097141,-21.14,21.034,5.273
121.1078,-24.01,19.197,4.807
121.118459,-25.06,17.182,3.74
121.129118,-26.39,16.058,3.258
121.139777,-24.78,15.726,4.337
121.150436,-23.73,16.861,4.75
121.161095,-21.56,18.577,4.697
121.171753,-19.67,19.582,4.235
121.182411,-16.31,20.953,4.121
121.193069,-11.13,21.557,4.725
121.203727,-4.27,21.788,5.832
121.214385,3.99,21.979,7.572
121.225043,9.87,25.471,8.329
121.235701,11.2,33.146,4.707
121.246359,8.96,42.812,-3.753
121.257017,6.3,51.266,-10.579
121.267675,4.13,56.318,-11.82
121.278333,1.33,58.131,-10.008
121.288991,-1.61,55.913,-7.911
121.299649,-4.69,51.307,-5.169
121.310319,-7.28,45.679,-1.47
121.320989,-10.85,39.861,1.698
121.331659,-13.93,34.549,3.604
121.342329,-16.31,28.645,6.046
121.352999,-17.43,23.098,8.48
121.363669,-17.43,18.318,10.196
121.374339,-16.66,15.39,10.675
121.385009,-15.96,13.914,9.775
121.395679,-13.79,13.415,7.767
121.406349,-12.18,12.806,3.964
121.417019,-12.18,12.794,5.241
121.427689,-13.51,12.28,9.771
121.438359,-15.33,11.83,12.321
121.44903,-15.12,11.145,15.399
121.459701,-12.95,10.501,20.261
121.470372,-9.66,10.088,25.022
121.481043,-7,10.823,28.919
121.491714,-6.09,12.116,29.644
121.502385,-4.48,13.434,27.815
121.513056,-2.52,14.159,24.105
121.523727,-0.14,14.061,19.823
121.534398,1.19,13.741,15.999
121.545069,2.1,12.146,11.738
121.55574,2.24,9.684,6.754
121.566411,1.75,7.847,2.663
121.577106,0.49,6.772,-0.512
121.587801,-0.84,6.329,-3.646
121.598496,-3.29,5.315,-5.958
121.609191,-6.16,5.4,-7.648
121.619886,-9.1,5.108,-8.411
121.630581,-12.32,4.354,-8.97
121.641276,-14.56,3.016,-8.638
121.651971,-15.96,0.526,-8.224
121.662666,-16.31,-3.026,-7.428
121.673361,-16.17,-7.531,-6.872
121.684056,-17.22,-12.275,-5.363
121.694751,-16.73,-17.214,-3.959
121.705449,-16.38,-22.262,-3.144
121.716147,-15.75,-27.274,-2.535
121.726845,-14.77,-31.26,-2.1
121.737543,-13.09,-34.354,-2.29
121.748241,-10.85,-36.191,-2.756
121.758939,-9.31,-37.108,-3.202
121.769637,-8.19,-37.627,-3.081
121.780335,-7.49,-37.594,-2.862
121.791033,-7.63,-36.755,-2.785
121.801731,-8.33,-35.478,-2.773
121.812429,-9.52,-33.616,-2.445
121.823127,-10.57,-32.027,-2.591
121.833825,-10.85,-30.506,-1.541
121.844542,-11.62,-29.61,-0.174
121.855259,-11.41,-29.374,0.507
121.865976,-9.8,-29.8,-0.705
121.876693,-7,-30.327,-0.941
121.88741,-3.5,-30.818,-1.383
121.898127,0,-30.182,-1.768
121.908844,4.27,-29.622,-1.314
121.919561,8.61,-29.083,-1.148
121.930278,14.63,-30.644,-0.357
121.940995,22.05,-33.924,0.913
121.951712,25.62,-37.224,3.103
121.962429,24.92,-39.061,6.262
121.973181,18.34,-39.195,4.604
121.983933,4.41,-37.379,-1.26
121.994685,-11.55,-34.278,-6.755
122.005437,-24.99,-31.623,-14.959
122.016189,-35.49,-29.463,-24.387
122.026941,-40.95,-27.688,-30.826
122.037693,-42.28,-26.784,-32.728
122.048445,-39.41,-26.009,-33.089
122.059197,-33.95,-25.101,-33
122.069949,-28.7,-24.505,-31.544
122.080701,-23.1,-24.261,-26.881
122.091453,-17.64,-24.758,-19.221
122.102215,-12.32,-25.99,-10.625
122.112977,-7.35,-27.465,-1.857
122.123739,-2.03,-28.441,6.5
122.134501,2.8,-29.235,12.615
122.145263,7,-29.473,17.193
122.156025,10.01,-29.534,19.955
122.166787,12.32,-29.457,21.532
122.177549,14.42,-28.398,21.577
122.188311,14.56,-26.724,19.739
122.199073,10.64,-21.457,14.058
122.209835,7.35,-18.461,9.966
122.220597,3.36,-15.74,7.034
122.231359,-3.01,-11.71,5.541
122.242219,-9.45,-8.101,3.618
122.253079,-16.03,-4.083,2.194
122.263939,-22.89,-0.507,2.47
122.274799,-28,3.078,3.102
122.285659,-29.19,7.693,1.925
122.296519,-26.11,12.526,0.716
122.307379,-21.49,18.11,4.117
122.318239,-22.12,22.875,4.105
122.329099,-21.91,28.369,3.581
122.339959,-21.56,33.535,4.918
122.350819,-20.72,37.189,5.562
122.361729,-19.39,39.075,6.961
122.372639,-17.36,40.061,9.836
122.383549,-13.09,40.924,10.983
122.394459,-5.04,41.784,11.348
122.405369,3.85,39.509,10.947
122.416279,11.97,36.31,12.16
122.427189,20.86,33.731,13.482
122.438099,28.77,31.947,13.523
122.449009,33.81,29.449,13.58
122.459919,38.85,28.72,15.3
122.470829,42.98,26.761,15.523
122.481739,46.83,24.92,16.691
122.492649,49.84,22.609,18.913
122.503563,51.1,21.069,21.201
122.514477,48.09,21.547,22.92
122.525391,38.29,22.464,23.366
122.536305,25.13,23.883,22.976
122.547219,12.88,24.649,21.05
122.558133,3.57,24.288,20.276
122.569047,-3.78,22.748,22.563
122.579961,-8.33,20.692,25.754
122.590875,-10.64,19.484,28.171
122.601789,-13.44,20.157,29.996
122.612703,-16.31,22.002,28.402
122.623617,-19.11,23.348,21.176
122.634531,-20.86,23.456,13.305
122.645451,-21.63,22.944,6.533
122.656371,-23.66,21.642,1.826
122.667291,-27.16,21.313,-3.563
122.678211,-30.8,21.997,-11.475
122.689131,-31.64,23.322,-17.78
122.700051,-30.31,24.59,-22.959
122.710971,-26.25,24.525,-25.813
122.721891,-21.56,23.057,-27.565
122.732811,-14.42,21.378,-28.927
122.743731,-4.9,20.77,-29.106
122.754651,5.46,22.278,-29.195
122.765571,15.05,24.654,-29.771
122.776479,22.61,27.107,-29.978
122.787387,29.19,28.884,-29.168
122.798295,34.09,30.863,-25.478
122.809203,38.01,32.384,-19.594
122.820111,39.76,34.648,-14.291
122.831019,40.32,37.771,-9.831
122.841927,37.87,42.11,-6.222
122.852835,31.57,46.681,-3.924
122.863743,22.68,49.799,-3.871
122.874651,14.35,50.067,-2.971
122.885559,8.54,47.853,-2.509
122.896467,3.85,44.86,-3.676
122.907375,-0.28,43.092,-4.13
122.91825,-4.55,42.451,-5.736
122.929125,-9.73,40.93,-7.994
122.94,-13.23,37.958,-7.665
122.950875,-14.49,31.567,-4.883
122.96175,-15.47,22.582,-2.7
122.972625,-16.31,12.651,-1.608
122.9835,-18.83,4.107,-2.332
122.994375,-21.91,-2.936,-3.503
123.00525,-23.24,-7.936,-5.38
123.016125,-21.98,-11.318,-6.758
123.027,-18.06,-13.403,-7.836
123.037875,-12.53,-16.371,-7.933
123.048745,-10.71,-19.623,-6.019
123.059615,-11.83,-22.364,-2.166
123.070485,-15.33,-24.168,-3.622
123.081355,-19.67,-24.367,-6.927
123.092225,-20.93,-21.534,-10.905
123.103095,-19.81,-18.339,-16.526
123.113965,-16.87,-16.008,-18.46
123.124835,-13.79,-14.843,-14.985
123.135705,-11.83,-14.173,-9.11
123.146575,-11.06,-12.847,-4.54
123.157445,-10.15,-12.692,-1.385
123.168315,-9.45,-13.523,2.52
123.179131,-8.19,-15.509,6.932
123.189947,-6.3,-18.891,10.387
123.200763,-5.32,-23.282,13.523
123.211579,-4.06,-28.03,16.666
123.222395,-3.64,-32.32,18.824
123.233211,-3.64,-37.405,19.846
123.244027,-5.18,-43.304,20.654
123.254843,-6.16,-48.649,19.925
123.265659,-7.07,-54.01,18.482
123.276475,-8.4,-59.249,16.35
123.287291,-10.15,-63.621,13.731
123.298107,-10.92,-66.849,10.674
123.308923,-10.57,-68.378,8.059
123.319708,-10.08,-68.796,5.995
123.330493,-9.31,-67.685,4.129
123.341278,-8.68,-67.065,3.03
123.352063,-7.42,-69.121,3.805
123.362848,-6.86,-73.605,7.066
123.373633,-6.09,-78.88,9.974
123.384418,-4.41,-82.7,8.661
123.395203,-4.2,-82.579,7.971
123.405988,-3.64,-82.1,8.482
123.416773,-1.82,-80.612,8.105
123.427558,0.28,-79.181,7.647
123.438343,3.57,-77.608,6.787
123.449129,8.19,-76.383,6.292
123.459915,12.88,-76.582,6.612
123.470701,15.05,-76.752,7.577
123.481487,12.25,-75.195,7.212
123.492273,6.51,-72.446,6.133
123.503059,-0.98,-68.711,4.304
123.513845,-10.08,-63.614,3.212
123.524631,-18.2,-58.387,2.997
123.535417,-24.5,-54.815,4.906
123.546203,-28.77,-53.622,9.026
123.556989,-31.15,-54.112,14.626
123.567775,-31.99,-54.703,19.995
123.578583,-30.87,-54.528,23.437
123.589391,-29.82,-53.487,20.351
123.600199,-29.33,-50.454,19.678
123.611007,-25.83,-47.059,24.612
123.621815,-19.46,-46.937,27.548
123.632623,-9.73,-51.397,30.671
123.643431,3.78,-59.202,38.251
123.654239,18.34,-68.166,44.347
123.665047,31.01,-74.954,44.145
123.675855,38.85,-79.343,39.604
123.686663,39.76,-81.12,31.543
123.697471,35.35,-82.168,19.346
123.708303,30.1,-81.792,6.333
123.719135,24.78,-79.62,-3.164
123.729967,18.9,-76.799,-9.49
123.740799,11.9,-73.336,-14.211
123.751631,3.15,-70.644,-16.579
123.762463,-7.14,-69.107,-16.024
123.773295,-18.34,-67.303,-13.36
123.784127,-29.96,-66.487,-9.52
123.794959,-41.16,-64.832,-6.811
123.805791,-48.72,-62.289,-5.51
123.816623,-53.34,-60.25,-3.373
123.827455,-55.86,-59.389,0.617
123.83829,-56.28,-60.204,5.235
123.849125,-53.9,-61.618,8.824
123.85996,-49.14,-61.403,9.217
123.870795,-41.58,-58.602,6.229
123.88163,-31.85,-53.518,1.581
123.892465,-22.89,-47.448,-2.609
123.9033,-15.61,-40.494,-6.572
123.914135,-9.45,-33.411,-10.867
123.92497,-5.32,-26.578,-14.14
123.935805,-3.78,-21.1,-15.378
123.94664,-3.01,-17.11,-16.238
123.957475,-1.96,-15.079,-15.666
123.96831,-0.98,-14.596,-13.165
123.979108,-3.29,-15.796,-10.391
123.989906,-7.77,-17.158,-7.503
124.000704,-12.81,-17.417,-4.422
124.011502,-18.41,-16.942,-1.068
124.0223,-23.45,-16.256,1.896
124.033098,-25.97,-15.96,4.649
124.043896,-26.53,-15.075,7.293
124.054694,-24.99,-14.751,9.483
124.065492,-21.84,-14.82,10.679
124.07629,-18.34,-15.529,10.269
124.087088,-14.98,-16.044,11.174
124.097886,-12.95,-16.778,14.527
124.108684,-12.46,-18.869,17.926
124.119454,-14,-20.175,17.269
124.130224,-18.41,-20.106,16.073
124.140994,-21.84,-19.498,16.251
124.151764,-25.2,-18.733,10.7
124.162534,-28.56,-17.144,4.512
124.173304,-28.77,-15.299,0.501
124.184074,-28.28,-14.798,-6.376
124.194844,-26.46,-13.85,-12.962
124.205614,-25.55,-13.424,-17.791
124.216384,-25.34,-13.364,-22.97
124.227154,-24.71,-12.55,-27.588
124.237924,-23.59,-11.553,-30.824
124.248692,-21.21,-10.722,-33.521
124.25946,-17.78,-11.351,-33.987
124.270228,-12.74,-12.993,-31.931
124.280996,-8.26,-15.19,-28.338
124.291764,-3.85,-17.646,-22.872
124.302532,-0.35,-19.276,-17.259
124.3133,2.03,-21.177,-12.121
124.324068,1.75,-23.933,-6.566
124.334836,0.84,-26.536,-1.48
124.345604,-1.96,-29.281,2.798
124.356372,-4.76,-31.965,5.523
124.36714,-8.19,-33.501,7.385
124.37787,-11.27,-34.559,8.549
124.3886,-14.07,-35.2,9.36
124.39933,-16.73,-35.52,9.161
124.41006,-20.02,-35.354,8.622
124.42079,-21.63,-34.941,7.486
124.43152,-22.4,-34.69,6.464
124.44225,-21.49,-34.402,5.236
124.45298,-19.25,-33.506,4.185
124.46371,-17.29,-32.614,3.561
124.47444,-15.19,-30.797,2.531
124.48517,-13.44,-28.798,1.675
124.4959,-12.25,-25.425,0.279
124.50663,-12.18,-20.883,-1.692
124.517347,-11.76,-15.742,-3.842
124.528064,-10.71,-10.349,-5.805
124.538781,-10.22,-6.104,-6.905
124.549498,-10.01,-2.191,-6.926
124.560215,-9.94,-0.058,-6.123
124.570932,-10.22,0.888,-3.824
124.581649,-10.99,2.003,-1.282
124.592366,-13.51,2.697,-0.377
124.603083,-16.31,2.632,0.393
124.6138,-16.94,2.38,1.415
124.624517,-16.73,0.596,2.664
124.635234,-13.93,-1.686,3.114
124.645922,-8.61,-4.115,3.184
124.65661,-2.03,-5.267,2.057
124.667298,3.15,-4.91,0.84
124.677986,5.95,-3.576,0.933
124.688674,5.25,-3.11,3.93
124.699362,3.15,-3.434,6.574
124.71005,-3.01,-3.867,7.421
124.720738,-7.28,-3.299,13.066
124.731426,-12.25,-3.165,14.724
124.742114,-14.56,-3.055,14.104
124.752802,-14,-3.554,14.513
124.76349,-12.6,-5.342,14.98
124.774178,-8.12,-7.881,15.67
124.78484,-1.82,-10.091,15.706
124.795502,4.76,-10.241,15.751
124.806164,9.17,-8.396,16.574
124.816826,11.41,-6.315,16.87
124.827488,12.46,-3.623,14.501
124.83815,13.16,-0.343,9.606
124.848812,14.49,3.322,4.14
124.859474,14.35,5.778,-0.118
124.870136,13.3,7.185,-5.272
124.880798,10.64,7.229,-9.956
124.89146,6.72,5.209,-14.222
124.902122,2.52,2.54,-19.241
124.912747,-0.35,0.232,-22.278
124.923372,-3.57,-2.25,-23.924
124.933997,-6.09,-2.631,-26.195
124.944622,-9.52,-2.051,-26.661
124.955247,-12.53,-0.705,-26.637
124.965872,-14.21,0.832,-26.082
124.976497,-15.05,2.194,-25.344
124.987122,-13.86,3.078,-23.909
124.997747,-12.81,3.638,-22.246
125.008372,-11.62,4.855,-20.681
125.018997,-10.57,6.339,-20.633
125.029622,-9.03,8.204,-20.73
125.040247,-8.19,8.679,-19.794
125.050881,-7.84,7.459,-18.516
125.061515,-7.98,5.371,-16.752
125.072149,-9.1,2.743,-15.154
125.082783,-10.85,-0.172,-14.744
125.093417,-11.48,-2.65,-14.399
125.104051,-12.18,-3.607,-13.004
125.114685,-13.86,-4.231,-11.479
125.125319,-15.05,-4.608,-9.342
125.135953,-17.36,-4.989,-7.988
125.146587,-19.18,-4.526,-5.774
125.157221,-21.63,-4.197,-4.01
125.167855,-23.59,-4.339,-2.4
125.178465,-25.06,-5.28,-1.5
125.189075,-26.11,-6.751,0.8
125.199685,-25.9,-9.193,0.938
125.210295,-24.5,-10.401,-0.27
125.220905,-23.87,-11.691,-1.422
125.231515,-23.87,-13.041,0.188
125.242125,-20.65,-15.693,0.716
125.252735,-19.11,-17.834,-1.652
125.263345,-18.06,-17.643,1.296
125.273955,-17.01,-16.848,3.64
125.284565,-15.68,-14.018,-2.33
125.295175,-13.93,-8.472,-9.597
125.305785,-11.2,-0.764,-14.209
125.316397,-9.17,5.005,-19.517
125.327009,-5.67,11.553,-26.821
125.337621,-0.35,19.326,-30.995
125.348233,4.83,29.208,-33.02
125.358845,9.45,40.298,-35.045
125.369457,14.49,49.904,-34.701
125.380069,17.99,58.006,-31.069
125.390681,21.77,63.157,-24.404
125.401293,24.99,67.493,-16.744
125.411905,28.07,72.186,-10.302
125.422517,30.66,77,-4.548
125.433129,32.62,82.568,0.556
125.443727,31.92,87.491,4.481
125.454325,29.61,91.295,7.497
125.464923,25.13,95.184,10.031
125.475521,20.23,98.651,10.927
125.486119,15.33,101.092,10.788
125.496717,10.29,103.558,10.512
125.507315,6.51,104.154,9.551
125.517913,3.29,103.797,8.351
125.528511,0.35,102.726,7.167
125.539109,-0.98,100.71,4.893
125.549707,-2.59,98.747,1.916
125.560305,-3.5,97.101,-0.435
125.570903,-4.2,96.006,-1.481
125.581507,-5.39,95.547,-2.913
125.592111,-6.02,96.301,-3.562
125.602715,-7.35,97.425,-4.288
125.613319,-7.42,97.935,-4.766
125.623923,-5.74,96.52,-3.594
125.634527,-4.48,93.078,-1.002
125.645131,-3.92,90.479,1.24
125.655735,-5.32,90.491,1.171
125.666339,-8.33,98.592,-6.072
125.676943,-9.38,101.84,-8.769
125.687547,-10.71,102.347,-8.822
125.698151,-8.82,100.263,-7.483
125.708848,-2.38,96.999,-6.708
125.719545,3.43,95.341,-2.949
125.730242,3.78,94.067,-3.387
125.740939,1.26,93.989,-8.589
125.751636,-1.26,93.283,-11.841
125.762333,-4.76,92.185,-11.253
125.77303,-6.3,89.995,-9.72
125.783727,-5.88,87.238,-7.79
125.794424,-5.46,84.574,-4.776
125.805121,-1.96,82.065,-2.234
125.815818,3.15,81.222,0.532
125.826559,8.61,80.622,1.919
125.8373,10.29,76.636,2.353
125.848041,9.52,72.966,7.037
125.858782,7.14,71.268,7.804
125.869523,3.22,69,2.926
125.880264,-0.91,67.588,-1.161
125.891005,-6.09,64.198,-1.688
125.901746,-11.48,58.773,2.473
125.912487,-14.84,52.639,8.642
125.923228,-15.82,45.551,12.155
125.933969,-14.14,39.55,15.148
125.94471,-10.57,35.484,19.264
125.955451,-5.88,33.022,19.115
125.966192,-0.35,30.309,16.362
125.976962,4.69,26.015,15.32
125.987732,8.89,20.565,13.577
125.998502,11.83,13.63,9.369
126.009272,13.37,5.665,4.553
126.020042,13.37,-1.553,-0.061
126.030812,12.46,-9.575,-4.958
126.041582,11.2,-17.904,-7.706
126.052352,11.34,-24.923,-7.806
126.063122,11.55,-30.47,-5.373
126.073892,9.8,-35.478,-3.981
126.084662,7.28,-40.7,-1.774
126.095432,4.97,-44.706,1.997
126.106226,1.61,-48.327,5.197
126.11702,-1.05,-52.329,7.335
126.127814,-2.45,-54.603,9.35
126.138608,-3.29,-55.357,9.999
126.149402,-3.22,-55.512,9.261
126.160196,-2.59,-55.881,8.13
126.17099,-0.63,-56.797,7.684
126.181784,1.75,-58.492,8.025
126.192578,2.24,-61.059,9.278
126.203372,2.45,-63.8,9.506
126.214166,1.89,-66.699,8.213
126.22496,0.84,-68.549,5.399
126.235785,0.7,-68.177,0.062
126.24661,0.7,-67.46,-5.213
126.257435,0.77,-67.217,-7.801
126.26826,1.75,-68.437,-6.523
126.279085,2.87,-70.687,-4.645
126.28991,2.8,-72.536,-3.834
126.300735,2.31,-73.181,-3.806
126.31156,0.63,-72.982,-4.126
126.322385,-2.31,-70.833,-3.818
126.33321,-5.6,-67.139,-5.015
126.344035,-10.36,-61.215,-7.169
126.35486,-15.19,-55.291,-8.114
126.365685,-16.24,-49.091,-6.595
126.376524,-15.4,-43.413,-3.319
126.387363,-12.39,-39.739,0.03
126.398202,-7.49,-37.46,2.422
126.409041,-2.73,-38.632,2.215
126.41988,-1.82,-40.991,3.505
126.430719,-1.75,-41.567,5.963
126.441558,-2.8,-40.797,-0.015
126.452397,-3.36,-39.574,-11.385
126.463236,-1.47,-37.26,-17.658
126.474075,3.5,-33.59,-19.926
126.484914,10.99,-31.373,-26.856
126.495753,22.26,-29.541,-28.381
126.506635,35.84,-28.238,-22.465
126.517517,49.14,-26.035,-15.608
126.528399,61.04,-24.546,-9.943
126.539281,70,-23.43,-2.568
126.550163,76.16,-24.183,7.748
126.561045,77,-26.176,19.054
126.571927,70.14,-29.216,27.829
126.582809,57.89,-30.7,32.615
126.593691,42.07,-31.377,32.424
126.604573,25.48,-31.26,28.535
126.615455,10.5,-30.916,24.971
126.626337,-1.54,-30.758,21.658
126.637225,-11.76,-31.038,18.41
126.648113,-20.23,-31.874,15.49
126.659001,-26.6,-32.977,14.088
126.669889,-30.8,-34.437,12.693
126.680777,-33.53,-36.728,11.578
126.691665,-35.07,-39.912,11.088
126.702553,-35.49,-43.711,11.271
126.713441,-34.93,-46.359,11.373
126.724329,-32.83,-47.831,11.255
126.735217,-31.43,-48.152,9.848
126.746105,-29.61,-48.144,8.997
126.756993,-27.44,-48.128,8.502
126.767881,-25.2,-48.817,9.589
126.77877,-22.19,-50.297,10.323
126.789659,-18.34,-52.052,11.008
126.800548,-14.56,-53.581,10.81
126.811437,-10.85,-55.422,10.77
126.822326,-5.88,-57.677,10.656
126.833215,-0.49,-60.106,10.726
126.844104,4.97,-62.287,10.199
126.854993,8.89,-64.076,8.249
126.865882,9.8,-66.092,4.766
126.876771,7.56,-67.763,1.344
126.88766,2.03,-69.568,-1.32
126.898549,-5.18,-70.703,-2.942
126.9094,-14.28,-71.012,-4.418
126.920251,-24.22,-71.073,-5.282
126.931102,-33.46,-71.344,-5.756
126.941953,-39.62,-70.748,-5.509
126.952804,-44.24,-68.988,-5.412
126.963655,-46.9,-65.903,-6.787
126.974506,-47.81,-61.811,-7.416
126.985357,-46.76,-57.44,-8.422
126.996208,-49.7,-54.545,-11.537
127.007059,-55.44,-51.791,-8.208
127.01791,-60.69,-48.98,0.035
127.028761,-66.71,-47.536,3.133
127.039612,-70,-45.999,4.897
127.050415,-70,-44.125,9.99
127.061218,-66.08,-42.587,16.587
127.072021,-59.92,-42.818,21.522
127.082824,-52.57,-44.41,28.136
127.093627,-45.99,-46.863,35.593
127.10443,-39.06,-48.78,42.434
127.115233,-32.41,-50.787,45.35
127.126036,-25.13,-52.259,44.024
127.136839,-17.01,-52.523,41.49
127.147642,-9.66,-52.499,36.518
127.158445,-4.83,-52.816,29.852
127.169248,-2.59,-54.086,24.155
127.180051,-5.11,-56.783,19.699
127.190808,-11.13,-60.138,14.132
127.201565,-18.76,-62.45,5.479
127.212322,-26.32,-62.691,-3.235
127.223079,-33.25,-61.418,-11.256
127.233836,-38.5,-59.063,-18.162
127.244593,-43.26,-56.335,-23.154
127.25535,-46.69,-54.308,-25.782
127.266107,-48.86,-52.516,-26.675
127.276864,-49.63,-50.318,-26.642
127.287621,-47.53,-47.913,-25.365
127.298378,-45.64,-45.435,-23.294
127.309135,-42.7,-42.816,-21.623
127.319879,-40.32,-40.544,-18.38
127.330623,-38.43,-39.031,-15.27
127.341367,-36.05,-36.89,-12.902
127.352111,-34.51,-35,-10.721
127.362855,-32.55,-33.135,-9.61
127.373599,-31.43,-31.594,-8.272
127.384343,-31.01,-31.005,-7.173
127.395087,-29.54,-30.928,-6.804
127.405831,-27.79,-30.754,-6.987
127.416575,-26.25,-31.735,-6.662
127.427319,-25.34,-34.643,-5.895
127.438063,-26.18,-40.494,-5.363
127.448807,-27.09,-46.67,-5.812
127.459551,-28.77,-51.609,-8.034
127.47026,-31.22,-54.351,-11.432
127.480969,-34.37,-55.097,-15.259
127.491678,-36.12,-55.386,-18.864
127.502387,-36.47,-55.568,-20.247
127.513096,-35.98,-55.925,-20.239
127.523805,-34.23,-56.501,-18.99
127.534514,-30.31,-57.028,-18.016
127.545223,-26.04,-57.069,-21.009
127.555932,-22.47,-54.514,-20.985
127.566641,-17.36,-50.135,-20.426
127.57735,-13.58,-45.436,-26.919
127.588059,-12.04,-40.052,-31.656
127.598768,-14.07,-35.303,-32.382
127.609431,-18.2,-31.613,-34.362
127.620094,-22.05,-28.495,-36.726
127.630757,-25.69,-24.672,-38.255
127.64142,-28.84,-20.094,-39.225
127.652083,-30.31,-15.297,-40.227
127.662746,-29.47,-10.622,-41.749
127.673409,-27.86,-5.898,-43.546
127.684072,-25.2,-2.431,-45.067
127.694735,-21.84,0.083,-45.619
127.705398,-18.13,1.332,-45.043
127.716061,-14.49,2.03,-42.148
127.726724,-12.25,2.57,-37.148
127.737367,-10.08,2.364,-32.351
127.74801,-8.96,0.961,-26.414
127.758653,-8.82,-0.408,-20.259
127.769296,-8.05,-2.192,-14.176
127.779939,-7.84,-4.62,-8.065
127.790582,-7.63,-7.019,-1.309
127.801225,-7.35,-9.37,5.171
127.811868,-6.23,-11.012,9.644
127.822511,-5.11,-11.847,13.975
127.833154,-3.99,-12.799,17.361
127.843797,-3.29,-13.318,19.9
127.85444,-2.66,-13.772,21.668
127.865068,-1.96,-13.853,22.933
127.875696,-1.47,-13.986,23.691
127.886324,-0.63,-13.119,23.204
127.896952,-0.21,-12.835,22.402
127.90758,0.56,-12.049,20.763
127.918208,0.7,-10.836,19.129
127.928836,1.19,-10.058,17.134
127.939464,1.4,-8.209,15.114
127.950092,0.84,-6.348,13.026
127.96072,1.47,-4.414,11.732
127.971348,1.82,-1.742,10.284
127.981976,1.82,1.141,8.446
127.992573,1.05,4.762,7.663
128.00317,-0.56,8.334,8.364
128.013767,-1.4,11.42,9.406
128.024364,-2.17,14.486,11.368
128.034961,-2.24,18.014,13.128
128.045558,-1.4,21.794,15.073
128.056155,1.19,26.583,16.131
128.066752,3.92,31.814,16.698
128.077349,7.91,36.234,19.041
128.087946,11.97,38.841,19.572
128.098543,12.53,40.175,18.457
128.10914,14.07,41.23,21.344
128.119737,14.07,42.69,23.947
128.130323,15.12,44.734,24.449
128.140909,16.31,45.48,24.652
128.151495,17.71,44.941,26.903
128.162081,19.67,42.517,30.171
128.172667,22.33,39.399,33.744
128.183253,23.66,36.63,38.16
128.193839,25.41,34.737,42.447
128.204425,26.18,33.31,42.48
128.215011,29.05,30.361,36.629
128.225597,30.31,28.15,31.832
128.236183,31.08,24.828,26.484
128.246769,31.15,21.02,21.476
128.257428,30.52,17.321,17.057
128.268087,28.21,13.549,11.843
128.278746,24.36,9.972,6.734
128.289405,19.88,6.683,2.813
128.300064,14.7,3.293,-0.13
128.310723,9.03,1.2,-2.774
128.321382,2.87,-0.925,-4.428
128.332041,-2.24,-2.377,-5.466
128.3427,-6.93,-3.411,-5.648
128.353359,-9.94,-3.885,-5.376
128.364018,-11.41,-4.384,-4.967
128.374751,-11.9,-4.895,-3.28
128.385484,-11.2,-5.701,-0.721
128.396217,-10.36,-6.999,2.604
128.40695,-8.89,-9.046,6.153
128.417683,-7.07,-10.797,8.829
128.428416,-5.6,-12.293,11.266
128.439149,-3.85,-13.311,13.006
128.449882,-1.89,-13.558,14.811
128.460615,0.42,-13.825,16.327
128.471348,1.68,-14.737,17.872
128.482081,3.57,-15.435,19.811
128.492814,3.99,-15.799,20.67
128.503563,3.92,-15.941,21.072
128.514312,2.1,-15.098,20.723
128.525061,-0.63,-14.299,20.224
128.53581,-5.53,-14.522,20.682
128.546559,-10.57,-13.853,20.516
128.557308,-15.05,-12.864,19.34
128.568057,-19.04,-10.565,17.187
128.578806,-21.21,-7.548,14.591
128.589555,-21.14,-4.576,13.054
128.600304,-19.95,-3.745,13.982
128.611053,-17.92,-5.038,18.09
128.621802,-15.4,-7.929,21.987
128.632551,-15.26,-11.229,21.761
128.643345,-14.42,-12.101,20.256
128.654139,-13.23,-11.396,16.258
128.664933,-12.88,-11.179,7.767
128.675727,-11.06,-10.385,-1.973
128.686521,-7.14,-8.055,-11.158
128.697315,-4.13,-6.762,-20.1
128.708109,-2.45,-6.938,-28.376
128.718903,-0.63,-6.558,-34.564
128.729697,0.91,-6.749,-37.512
128.740491,2.38,-7.114,-39.069
128.751285,4.27,-6.717,-40.918
128.762079,7.42,-5.448,-41.263
128.772893,11.06,-3.939,-40.144
128.783707,14.14,-3.857,-36.575
128.794521,16.59,-3.536,-31.543
128.805335,17.78,-4.006,-25.655
128.816149,17.99,-4.199,-18.51
128.826963,16.45,-4.892,-12.164
128.837777,14,-5.67,-6.544
128.848591,11.34,-6.391,-2.051
128.859405,8.89,-6.849,1.351
128.870219,6.23,-7.4,3.671
128.881033,3.5,-8.012,5.127
128.891847,1.61,-8.227,5.942
128.902661,0.07,-8.977,6.165
128.913475,-0.98,-9.253,6.116
128.924289,-1.4,-9.277,5.046
128.935103,-1.61,-9.184,3.712
128.945917,-1.54,-9.022,2.39
128.956731,-0.56,-8.819,1.643
128.967545,-0.35,-8.714,1.449
128.978359,-0.14,-8.309,1.165
128.989173,-0.77,-8.511,0.703
128.999987,-1.26,-8.811,0.792
129.010801,-2.17,-9.274,0.995
129.021615,-3.64,-9.347,1.408
129.032429,-5.53,-9.638,1.854
129.043275,-8.26,-10.372,2.791
129.054121,-10.71,-10.887,3.696
129.064967,-12.53,-11.584,4.426
129.075813,-14.77,-11.532,6.141
129.086659,-16.94,-10.959,8.943
129.097505,-19.39,-10.456,12.941
129.108351,-22.12,-10.52,18.545
129.119197,-24.22,-11.123,25.191
129.130043,-25.06,-11.812,31.112
129.140889,-24.43,-12.594,35.949
129.151735,-23.24,-13.254,40.098
129.162581,-20.72,-13.25,44.505
129.173407,-17.5,-13.748,48.54
129.184233,-12.32,-13.975,47.007
129.195059,-10.01,-13.485,40.199
129.205885,-9.17,-10.984,36.091
129.216711,-10.99,-7.509,32.51
129.227537,-10.71,-4.087,29.63
129.238363,-7.77,-2.45,25.583
129.249189,-3.99,-2.316,24.825
129.260015,2.52,-2.125,27.773
129.270841,9.73,-1.034,28.036
129.281667,17.15,0.49,27.452
129.292493,25.27,2.595,26.402
129.303319,31.64,5.96,22.233
129.314136,36.05,10.338,15.541
129.324953,38.36,15.641,8.444
129.33577,38.85,21.143,1.027
129.346587,36.82,26.304,-6.877
129.357404,32.83,31.185,-14.404
129.368221,27.23,35.839,-19.838
129.379038,21,39.448,-24.177
129.389855,14.77,42.687,-28.44
129.400672,8.33,46.356,-31.915
129.411489,2.87,48.387,-34.969
129.422306,-2.31,50.224,-36.92
129.433123,-7,51.57,-38.104
129.443928,-11.34,52.207,-38.489
129.454733,-15.54,52.13,-37.65
129.465538,-18.27,51.579,-35.33
129.476343,-20.02,49.827,-32.654
129.487148,-20.3,48.81,-29.706
129.497953,-19.88,46.884,-26.847
129.508758,-18.97,44.302,-22.682
129.519563,-16.87,40.791,-17.685
129.530368,-15.47,36.599,-12.454
129.541173,-13.37,31.616,-7.575
129.551978,-11.41,27.318,-4.566
129.562783,-9.17,24.127,-2.996
129.573588,-7.35,21.009,-1.84
129.58437,-7.14,18.336,-1.6
129.595152,-7.14,15.859,-1.255
129.605934,-7.98,13.28,0.067
129.616716,-10.01,11.074,0.887
129.627498,-12.74,9.055,1.454
129.63828,-15.96,8.171,1.228
129.649062,-19.18,7.826,-0.042
129.659844,-21,7.899,-2.872
129.670626,-21.63,8.831,-6.546
129.681408,-21.35,10.258,-7.787
129.69219,-20.51,11.466,-7.787
129.702972,-20.51,11.159,-4.43
129.713755,-18.06,8.982,-0.549
129.724538,-17.36,6.046,-0.427
129.735321,-16.03,5.057,3.166
129.746104,-12.67,4.863,4.269
129.756887,-10.22,5.993,-3.35
129.76767,-5.6,8.007,-10.743
129.778453,-1.12,9.511,-16.448
129.789236,2.59,9.068,-22
129.800019,6.86,7.377,-25.71
129.810802,10.5,4.984,-27.056
129.821585,13.23,2.62,-26.548
129.832368,15.4,-0.502,-23.758
129.843138,17.64,-3.502,-20.449
129.853908,19.6,-5.712,-16.787
129.864678,21.98,-7.601,-11.718
129.875448,23.03,-9.396,-5.566
129.886218,22.89,-10.896,0.922
129.896988,22.33,-12.2,7.516
129.907758,21,-13.153,13.318
129.918528,18.2,-13.878,18.237
129.929298,15.05,-13.954,22.702
129.940068,11.48,-14.436,26.242
129.950838,7.07,-15.376,29.559
129.961608,1.96,-16.966,30.914
129.972378,-2.66,-18.251,30.545
129.98313,-6.86,-19.014,29.628
129.993882,-11.2,-20.377,27.682
130.004634,-15.12,-22.027,25.756
130.015386,-18.69,-23.852,24.013
130.026138,-21.91,-25.576,22.501
130.03689,-24.71,-27.109,20.311
130.047642,-27.09,-28.099,17.862
130.058394,-29.47,-28.431,15.316
130.069146,-31.08,-28.497,13.669
130.079898,-32.2,-27.617,11.905
130.09065,-32.9,-26.693,10.291
130.101402,-32.97,-25.022,8.88
130.11211,-32.83,-23.364,7.537
130.122818,-33.39,-21.308,6.763
130.133526,-33.46,-19.39,5.964
130.144234,-33.74,-17.229,4.994
130.154942,-33.81,-15.944,4.155
130.16565,-35,-15.291,4.483
130.176358,-36.54,-15.307,6.186
130.187066,-38.64,-16.385,8.27
130.197774,-40.67,-17.346,11.3
130.208482,-41.65,-18.448,14.73
130.21919,-41.93,-19.125,16.957
130.229898,-41.16,-18.464,16.433
130.240606,-37.31,-16.656,13.838
130.251265,-32.97,-14.029,11.032
130.261924,-28.21,-12.464,11.023
130.272583,-21.28,-12.419,11.173
130.283242,-16.66,-12.764,6.279
130.293901,-13.51,-11.037,3.74
130.30456,-11.06,-8.081,3.906
130.315219,-8.82,-4.359,2.146
130.325878,-4.48,-1.93,-0.34
130.336537,1.54,-0.965,1.038
130.347196,8.96,-1.309,8.228
130.357855,18.06,-3.258,17.267
130.368514,26.95,-4.895,23.73
130.379151,35.7,-5.271,29.493
130.389788,43.89,-4.845,33.122
130.400425,50.96,-3.495,31.512
130.411062,57.26,-1.225,25.088
130.421699,60.9,1.15,17.262
130.432336,61.25,2.503,9.184
130.442973,58.8,3.021,0.604
130.45361,54.11,2.736,-7.052
130.464247,46.97,2.155,-13.836
130.474884,37.73,1.733,-20.308
130.485521,28.28,0.507,-25.855
130.496158,18.2,0.024,-30.773
