Time,GyroscopeX,GyroscopeY,GyroscopeZ
62.008818,-9.45,-11.697,15.139
62.019492,-9.38,-11.117,13.464
62.030166,-8.75,-10.197,12.276
62.04084,-7.35,-9.901,11.404
62.051527,-6.02,-9.949,10.471
62.062214,-5.74,-9.881,9.275
62.072901,-5.32,-9.763,7.803
62.083588,-4.2,-9.532,6.493
62.094275,-3.57,-9.622,4.985
62.104962,-2.87,-9.606,3.282
62.115649,-3.08,-10.34,1.802
62.126336,-3.15,-11.65,0.363
62.137023,-2.59,-13.937,-1.178
62.14771,-2.8,-17.327,-2.913
62.158397,-2.52,-21.074,-4.64
62.169084,-2.03,-25.499,-6.557
62.179752,-2.03,-30.548,-9.367
62.19042,-2.24,-36.221,-11.86
62.201088,-1.89,-42.883,-13.177
62.211756,-2.24,-50.77,-13.999
62.222424,-2.87,-60.174,-13.88
62.233092,-2.52,-70.332,-13.112
62.24376,-3.22,-80.169,-13.354
62.254428,-4.2,-88.859,-15.668
62.265096,-4.06,-97.014,-19.807
62.275764,-4.27,-106.228,-23.991
62.286432,-5.53,-116.118,-23.531
62.2971,-6.16,-125.562,-21.571
62.307768,-6.72,-133.806,-22.385
62.318442,-6.09,-140.837,-23.625
62.329116,-5.74,-145.594,-25.672
62.33979,-5.67,-148.186,-29.114
62.350464,-6.58,-149.999,-33.344
62.361138,-8.12,-149.999,-36.969
62.371812,-9.45,-149.266,-40.322
62.382486,-10.15,-149.586,-41.729
62.39316,-10.36,-149.971,-41.158
62.403834,-10.08,-149.687,-39.544
62.414508,-8.89,-146.991,-38.713
62.425182,-6.72,-143.511,-37.886
62.435856,-4.69,-138.832,-36.208
62.446528,-2.66,-133.832,-34.331
62.4572,-1.12,-129.221,-31.457
62.467872,0.28,-124.966,-27.366
62.478544,1.26,-121.556,-22.926
62.489216,2.17,-118.242,-19.143
62.499888,2.66,-114.848,-15.417
62.51056,2.8,-110.371,-12.993
62.521232,2.52,-105.042,-11.769
62.531904,2.03,-100.131,-10.192
62.542576,2.1,-95.885,-7.667
62.553248,1.89,-92.576,-4.667
62.56392,0.77,-89.725,-0.681
62.574592,-0.63,-88.39,3.037
62.585268,-2.52,-86.946,6.135
62.595944,-4.83,-84.777,7.939
62.60662,-7.42,-81.796,7.967
62.617296,-10.22,-79.294,7.484
62.627972,-12.6,-76.492,6.912
62.638648,-14.21,-73.265,6.344
62.649324,-15.54,-70.191,5.038
62.66,-16.73,-67.061,3.813
62.670676,-17.71,-63.683,3.2
62.681352,-19.95,-57.836,1.886
62.692028,-20.65,-54.864,1.557
62.702704,-21.42,-51.989,0.571
62.713419,-22.75,-49.552,-0.35
62.724134,-23.94,-46.803,-1.429
62.734849,-24.85,-44.435,-2.362
62.745564,-26.11,-41.333,-4.232
62.756279,-26.6,-38.446,-6.495
62.766994,-27.79,-35.304,-8.997
62.777709,-28.14,-32.774,-11.252
62.788424,-27.09,-30.098,-13.126
62.799139,-26.53,-28.16,-14.845
62.809854,-25.76,-26.497,-15.405
62.820569,-24.43,-24.77,-15.527
62.831284,-22.61,-23.034,-15.292
62.842055,-21.07,-21.656,-15.049
62.852826,-20.02,-19.969,-14.538
62.863597,-18.55,-18.817,-13.411
62.874368,-17.92,-17.584,-12.341
62.885139,-17.08,-16.286,-10.833
62.89591,-16.45,-14.911,-8.955
62.906681,-16.38,-13.411,-6.985
62.917452,-15.33,-12.101,-5.546
62.928223,-14.35,-11.083,-3.66
62.938994,-12.95,-9.562,-1.402
62.949765,-12.04,-7.968,0.443
62.960536,-11.13,-6.467,2.414
62.971343,-10.57,-4.918,4.108
62.98215,-10.29,-3.101,5.495
62.992957,-11.06,-1.268,6.387
63.003764,-11.2,0.321,7.449
63.014571,-11.41,2.337,7.307
63.025378,-12.39,4.121,7.266
63.036185,-12.53,6.055,7.181
63.046992,-13.3,8.095,6.9
63.057799,-13.3,9.842,7.066
63.068606,-12.95,11.756,6.693
63.079413,-12.6,13.472,6.64
63.09022,-12.6,15.406,6.555
63.101068,-11.76,16.764,6.51
63.111916,-10.99,18.054,6.453
63.122764,-9.87,19.603,6.939
63.133612,-8.4,20.722,7.848
63.14446,-7,21.379,8.959
63.155308,-5.53,22.15,10.232
63.166156,-3.15,23.358,11.44
63.177004,-1.26,25.422,12.23
63.187852,0.7,28.525,12.777
63.1987,2.1,32.036,12.615
63.209548,3.64,35.807,12.995
63.220396,3.57,39.489,14.284
63.231288,2.31,42.758,16.709
63.24218,2.66,44.952,15.958
63.253072,0.42,45.738,14.32
63.263964,-4.69,45.191,18.63
63.274856,-9.73,43.497,23.805
63.285748,-14.21,40.671,25.723
63.29664,-18.2,37.269,28.891
63.307532,-21.56,32.891,33.165
63.318424,-24.36,27.778,37.168
63.329316,-25.9,22.872,39.999
63.340208,-27.58,18.31,42.891
63.3511,-27.72,13.899,45.738
63.362029,-27.37,9.317,48.342
63.372958,-26.67,5.822,50.427
63.383887,-24.71,3.215,51.105
63.394816,-22.12,0.713,50.379
63.405745,-19.04,-0.76,49.053
63.416674,-14.56,-1.405,46.665
63.427603,-10.57,-1.754,43.405
63.438532,-6.3,-2.204,39.914
63.449461,-1.47,-2.213,35.932
63.46039,2.73,-2.201,32.237
63.471319,7.42,-2.08,29.131
63.482248,12.11,-2.093,25.575
63.493169,16.87,-2.649,22.278
63.50409,22.75,-3.193,20.121
63.515011,29.75,-3.659,18.333
63.525932,36.75,-3.834,17.307
63.536853,43.68,-3.749,16.825
63.547774,50.75,-3.372,15.896
63.558695,56.7,-2.646,15.811
63.569616,60.69,-1.705,14.91
63.580537,60.13,-1.746,14.335
63.591458,55.16,-2.103,13.134
63.602379,46.06,-3.242,10.73
63.6133,33.67,-5.42,7.361
63.624221,21.28,-7.984,3.355
63.635138,9.45,-10.729,0.383
63.646055,-2.59,-15.129,-1.673
63.656972,-13.65,-19.043,-2.86
63.667889,-23.38,-23.442,-3.707
63.678806,-32.13,-27.639,-4.092
63.689723,-39.97,-31.63,-4.44
63.70064,-46.69,-34.72,-5.056
63.711557,-51.8,-37.449,-6.106
63.722474,-54.95,-40.072,-7.35
63.733391,-57.33,-42.193,-8.222
63.744308,-58.1,-43.836,-8.582
63.755225,-57.96,-45.369,-9.563
63.76611,-56.84,-46.131,-10.48
63.776995,-54.95,-46.427,-10.816
63.78788,-52.36,-46.119,-11.757
63.798765,-50.26,-45.482,-12.142
63.80965,-47.39,-43.954,-11.944
63.820535,-45.64,-41.638,-10.967
63.83142,-44.1,-38.203,-9.082
63.842305,-42.35,-33.353,-7.161
63.85319,-40.46,-27.343,-4.964
63.864075,-38.78,-20.782,-2.669
63.87496,-36.19,-14.176,-0.225
63.885845,-33.04,-8.393,2.856
63.89673,-29.19,-3.482,5.641
63.90758,-25.48,-0.348,8.824
63.91843,-21.77,1.611,11.017
63.92928,-17.57,1.766,12.964
63.94013,-13.58,0.347,14.561
63.95098,-9.59,-2.556,16.111
63.96183,-4.97,-6.628,17.028
63.97268,-0.98,-11.522,17.373
63.98353,1.96,-16.51,16.636
63.99438,4.2,-22.146,15.144
64.00523,5.18,-27.292,12.887
64.01608,5.11,-32.183,10.389
64.02693,3.57,-35.898,7.673
64.037718,1.4,-39.499,5.119
64.048506,-2.31,-42.618,2.65
64.059294,-6.58,-44.751,0.639
64.070082,-10.08,-45.234,-1.863
64.08087,-14.21,-45.007,-3.955
64.091658,-17.43,-44.302,-5.537
64.102446,-20.02,-42.818,-6.697
64.113234,-22.54,-41.338,-7.431
64.124022,-23.87,-39.728,-7.289
64.13481,-24.71,-38.013,-7.342
64.145598,-25.34,-36.285,-7.464
64.156386,-25.27,-34.586,-7.022
64.167174,-24.85,-32.721,-7.12
64.177934,-24.01,-31.8,-7.1
64.188694,-22.33,-30.555,-7.307
64.199454,-21.14,-29.542,-7.412
64.210214,-19.88,-29.173,-7.49
64.220974,-19.18,-28.767,-7.773
64.231734,-18.41,-28.609,-8.67
64.242494,-18.2,-28.808,-9.558
64.253254,-18.83,-29.133,-10.539
64.264014,-19.67,-29.336,-12.21
64.274774,-21.63,-29.563,-13.742
64.285534,-23.66,-30.321,-15.084
64.296294,-26.25,-31.364,-16.832
64.307015,-28.7,-31.879,-18.344
64.317736,-31.5,-32.901,-19.804
64.328457,-35.7,-33.862,-20.4
64.339178,-38.71,-35.346,-19.24
64.349899,-39.34,-37.264,-20.858
64.36062,-41.86,-38.854,-23.128
64.371341,-44.17,-40.289,-22.244
64.382062,-45.85,-43.258,-23.549
64.392783,-46.41,-47.443,-27.628
64.403504,-46.13,-52.216,-31.597
64.414225,-45.85,-55.794,-35.498
64.424946,-45.71,-58.385,-40.148
64.435667,-44.59,-60.061,-45.562
64.446388,-42.84,-59.826,-49.714
64.457109,-39.97,-58.148,-53.185
64.467795,-36.54,-55.111,-56.701
64.478481,-32.9,-50.136,-59.52
64.489167,-27.86,-44.411,-61.354
64.499853,-22.89,-37.473,-62.405
64.510539,-16.73,-29.813,-63.116
64.521225,-11.41,-21.942,-63.007
64.531911,-5.95,-14.842,-60.547
64.542597,-1.19,-8.313,-58.472
64.553283,2.73,-2.696,-56.06
64.563969,5.46,1.023,-52.561
64.574634,7.35,3.493,-49.638
64.585299,9.94,6.198,-47.242
64.595964,11.69,7.804,-45.466
64.606629,14.7,8.432,-43.791
64.617294,18.55,9.483,-42.895
64.627959,23.45,9.451,-40.697
64.638624,28.21,8.373,-36.196
64.649289,33.32,6.172,-28.552
64.659954,37.38,2.844,-19.756
64.670619,40.81,0.124,-10.782
64.681284,41.86,-2.51,-1.082
64.691949,41.72,-4.658,8.277
64.702578,39.69,-5.845,17.024
64.713207,36.05,-6.014,24.031
64.723836,30.17,-5.681,28.994
64.734465,23.66,-5.157,33.28
64.745094,16.03,-3.997,35.972
64.755723,9.59,-1.755,36.155
64.766352,3.5,-0.567,34.658
64.776981,-2.1,1.071,33.028
64.78761,-6.72,2.867,30.501
64.798239,-10.36,4.991,27.322
64.808868,-13.51,7.031,23.417
64.819497,-15.47,9.159,18.603
64.830126,-17.08,11.153,13.339
64.840734,-18.97,13.16,8.007
64.851342,-19.81,15.324,2.986
64.86195,-19.67,17.193,-2.371
64.872558,-19.39,19.617,-8.056
64.883166,-18.9,21.554,-13.401
64.893774,-18.41,23.5,-18.389
64.904382,-17.57,25.888,-23.867
64.91499,-16.45,28.373,-28.689
64.925598,-15.05,30.935,-33.142
64.936206,-14.07,33.501,-36.812
64.946814,-12.74,35.792,-39.322
64.957422,-10.99,37.487,-40.871
64.968002,-9.03,38.504,-41.403
64.978582,-6.93,38.683,-40.803
64.989162,-5.04,38.533,-39.55
64.999742,-3.43,38.12,-37.206
65.010322,-1.82,37.605,-35.093
65.020902,-0.77,36.649,-32.49
65.031482,0.7,35.08,-29.639
65.042062,2.31,33.349,-25.466
65.052642,3.36,31.545,-20.879
65.063222,3.57,29.765,-16.431
65.073802,2.87,28.103,-12.246
65.084382,0.49,26.352,-8.361
65.094962,-2.8,24.394,-4.513
65.105504,-7,22.383,-1.171
65.116046,-10.92,21.135,1.879
65.126588,-14.84,19.732,4.19
65.13713,-17.29,18.556,5.618
65.147672,-18.83,17.644,7.163
65.158214,-19.39,16.294,8.773
65.168756,-18.55,14.944,10.383
65.179298,-17.29,13.959,11.133
65.18984,-15.96,13.298,11.656
65.200382,-14.28,13.014,11.251
65.210924,-12.81,12.345,11.417
65.221466,-11.27,11.696,11.871
65.232008,-10.36,10.751,11.989
65.242535,-11.34,9.3,13.368
65.253062,-10.36,7.792,14.666
65.263589,-10.08,5.748,12.955
65.274116,-9.73,3.789,13.178
65.284643,-9.03,1.758,17.44
65.29517,-7,-0.127,19.667
65.305697,-4.41,-1.976,20.478
65.316224,-1.19,-4.052,23.382
65.326751,3.01,-5.227,26.018
65.337278,7.21,-6.087,26.861
65.347805,12.04,-6.164,26.492
65.358332,15.96,-5.414,25.061
65.36884,18.76,-3.845,23.418
65.379348,21.98,-2.102,21.593
65.389856,24.5,0.254,19.521
65.400364,25.97,2.946,18.361
65.410872,27.16,5.761,18.928
65.42138,25.97,8.028,20.181
65.431888,22.61,10.363,21.445
65.442396,18.48,12.168,21.693
65.452904,14.07,13.794,21.339
65.463412,9.8,14.889,21.177
65.47392,6.3,14.159,20.48
65.484428,3.43,13.027,19.641
65.494936,-0.21,11.182,18.818
65.505445,-3.78,8.575,17.078
65.515954,-7.56,6.34,14.836
65.526463,-10.99,4.641,11.978
65.536972,-15.61,2.844,8.462
65.547481,-19.67,1.144,5.604
65.55799,-23.17,-0.43,1.63
65.568499,-25.62,-1.76,-2.514
65.579008,-27.51,-3.561,-5.604
65.589517,-28.56,-5.268,-7.61
65.600026,-28.07,-6.453,-8.957
65.610535,-27.51,-7.787,-10.258
65.621044,-25.48,-8.403,-10.793
65.631594,-23.24,-8.209,-10.688
65.642144,-20.37,-7.406,-10.404
65.652694,-18.69,-5.244,-8.957
65.663244,-17.22,-2.584,-7.919
65.673794,-14.84,0.64,-6.853
65.684344,-11.9,3.304,-5.033
65.694894,-8.75,6.155,-4.672
65.705444,-6.51,8.689,-3.728
65.715994,-4.69,9.934,-2.726
65.726544,-2.94,11.471,-2.171
65.737094,-0.42,12.485,-1.068
65.747644,1.82,13.438,-0.829
65.758203,2.73,14.221,-2.042
65.768762,2.59,14.553,-3.12
65.779321,2.45,14.861,-4.061
65.78988,1.82,15.096,-4.588
65.800439,0.14,15.295,-4.909
65.810998,-1.96,15.514,-6.15
65.821557,-4.76,15.692,-7.966
65.832116,-8.4,16.937,-8.173
65.842675,-12.67,18.919,-8.534
65.853234,-15.75,22.447,-10.4
65.863793,-18.27,25.792,-10.023
65.874352,-21.49,28.761,-8.718
65.884911,-23.52,30.452,-7.425
65.895501,-24.36,31.223,-4.943
65.906091,-24.92,31.953,-3.038
65.916681,-26.53,31.973,-2.75
65.927271,-26.95,32.297,-4.185
65.937861,-27.58,31.145,-6.521
65.948451,-27.72,29.685,-9.124
65.959041,-29.54,27.491,-11.998
65.969631,-32.13,25.609,-16.24
65.980221,-33.46,24.891,-20.631
65.990811,-34.23,24.067,-26.036
66.001401,-34.72,24.273,-27.208
66.011991,-37.1,25.571,-30.534
66.022605,-37.8,27.877,-35.955
66.033219,-37.31,29.551,-40.209
66.043833,-37.1,30.407,-40.627
66.054447,-37.24,30.857,-40.761
66.065061,-36.4,31.948,-40.498
66.075675,-34.93,35.009,-39.318
66.086289,-31.36,40.881,-39.562
66.096903,-27.09,47.15,-41.655
66.107517,-20.51,53.816,-41.973
66.118131,-13.09,58.626,-39.419
66.128745,-5.39,61.404,-35.019
66.139359,0.42,63.104,-29.744
66.149973,5.74,64.548,-24.229
66.160633,10.78,65.798,-18.82
66.171293,15.96,67.25,-14.157
66.181953,19.67,68.232,-9.648
66.192613,20.86,68.512,-6.4
66.203273,21.84,67.612,-3.716
66.213933,22.75,66.267,1.094
66.224593,23.17,65.079,6.215
66.235253,23.45,64.346,10.777
66.245913,23.94,64.797,15.477
66.256573,23.8,65.227,19.889
66.267233,22.12,65.633,23.23
66.277893,19.53,65.111,27.403
66.288619,16.03,63.789,32.074
66.299345,10.85,61.754,34.345
66.310071,5.67,58.664,34.938
66.320797,0.63,54.719,34.74
66.331523,-5.18,50.173,33.512
66.342249,-9.45,45.035,30.402
66.352975,-12.11,40.314,26.94
66.363701,-14.49,35.622,22.914
66.374427,-16.24,31.185,17.44
66.385153,-17.57,28.906,12.631
66.395879,-18.41,28.751,8.268
66.406605,-18.06,30.385,3.438
66.417331,-17.36,31.779,-0.438
66.428104,-16.59,33.709,-2.515
66.438877,-15.75,35.404,-4.064
66.44965,-15.26,36.713,-5.041
66.460423,-14.42,37.127,-4.968
66.471196,-12.39,37.257,-4.093
66.481969,-10.78,37.314,-2.803
66.492742,-7.98,37.188,-1.688
66.503515,-5.46,37.188,-0.48
66.514288,-2.73,37.14,1.005
66.525061,-1.4,36.345,2.286
66.535834,-0.56,35.924,3.065
66.546607,-0.91,35.088,3.77
66.557435,-3.15,33.912,3.989
66.568263,-6.02,33.312,4.168
66.579091,-8.89,33.073,3.913
66.589919,-11.48,33.503,3.491
66.600747,-13.79,33.969,2.862
66.611575,-15.12,34.821,2.87
66.622403,-16.45,36.11,2.813
66.633231,-17.99,37.708,3.024
66.644059,-19.81,39.845,3.401
66.654887,-21.14,41.666,4.361
66.665715,-22.61,43.722,4.795
66.676543,-24.71,44.979,5.727
66.687377,-26.18,46.049,6.911
66.698211,-27.86,47.035,7.369
66.709045,-28.49,47.712,7.56
66.719879,-28.35,47.939,7.884
66.730713,-28.63,48.231,7.438
66.741547,-27.79,48.328,6.887
66.752381,-26.6,48.405,6.047
66.763215,-24.71,47.829,6.088
66.774049,-21.77,46.07,7.199
66.784883,-19.11,43.183,8.254
66.795717,-15.96,40.174,8.79
66.806551,-13.37,37.388,7.659
66.817385,-11.13,34.663,4.975
66.82821,-9.59,30.518,1.472
66.839035,-9.87,24.877,0.406
66.84986,-10.36,19.038,-0.339
66.860685,-10.5,13.592,-4.925
66.87151,-10.15,7.342,-9.794
66.882335,-10.08,0.23,-10.977
66.89316,-10.57,-8.671,-8.068
66.903985,-10.57,-17.429,-6.769
66.91481,-10.64,-26.63,-7.397
66.925635,-10.71,-36.017,-5.356
66.93646,-10.43,-45.007,-2.747
66.947285,-9.94,-52.78,-2.199
66.95811,-8.75,-59.471,-1.743
66.968948,-7.07,-64.653,-1.378
66.979786,-5.11,-68.355,-1.746
66.990624,-3.01,-70.792,-2.034
67.001462,-1.05,-73.01,-2.354
67.0123,0.77,-74.628,-1.644
67.023138,2.24,-75.755,-0.492
67.033976,3.22,-76.777,0.465
67.044814,4.2,-77.633,0.883
67.055652,5.25,-77.665,0.664
67.06649,6.72,-76.668,-0.156
67.077328,7.63,-75.237,-1.822
67.088166,8.19,-73.886,-3.432
67.098999,8.75,-72.942,-4.759
67.109832,8.96,-72.082,-5.602
67.120665,9.1,-70.655,-5.635
67.131498,8.75,-68.676,-6.778
67.142331,8.4,-67.132,-8.283
67.153164,7.84,-66.15,-8.608
67.163997,7.21,-65.25,-8.875
67.17483,5.32,-63.811,-8.977
67.185663,3.64,-61.702,-9.245
67.196496,1.12,-59.188,-9.797
67.207329,-1.89,-56.95,-10.397
67.218162,-5.88,-55.064,-11.415
67.22897,-10.15,-53.39,-12.044
67.239778,-14.35,-52.157,-12.182
67.250586,-19.25,-50.413,-12.799
67.261394,-23.1,-48.751,-13.358
67.272202,-25.34,-47.835,-14.121
67.28301,-26.95,-46.46,-14.66
67.293818,-27.93,-45.037,-15.476
67.304626,-28.07,-44.133,-16.169
67.315434,-27.58,-43.703,-16.591
67.326242,-26.32,-43.135,-16.988
67.33705,-24.64,-42.86,-16.94
67.347858,-23.03,-42.957,-17.597
67.358666,-21.7,-42.961,-18.379
67.369472,-20.37,-43.801,-18.456
67.380278,-18.97,-44.693,-19.04
67.391084,-17.29,-45.597,-19.555
67.40189,-16.59,-47.442,-19.169
67.412696,-15.82,-49.323,-18.577
67.423502,-15.54,-51.529,-17.758
67.434308,-15.12,-53.601,-17.697
67.445114,-14.7,-55.26,-17.563
67.45592,-14.42,-56.788,-16.553
67.466726,-14.07,-58.366,-16.475
67.477532,-13.58,-59.217,-16.483
67.488338,-13.37,-59.327,-17.071
67.499145,-12.95,-58.504,-17.708
67.509952,-11.9,-57.17,-18.823
67.520759,-11.13,-55.447,-19.728
67.531566,-10.92,-53.395,-20.077
67.542373,-9.8,-50.954,-20.215
67.55318,-9.17,-48.671,-19.457
67.563987,-7.77,-45.731,-18.797
67.574794,-6.37,-43.018,-17.252
67.585601,-4.41,-39.68,-16.024
67.596408,-2.17,-36.578,-14.268
67.607215,-0.42,-33.589,-12.675
67.618022,1.47,-30.621,-11.37
67.628812,3.99,-27.725,-10.859
67.639602,5.95,-25.682,-11.565
67.650392,7.42,-23.156,-10.978
67.661182,7.98,-21.574,-10.272
67.671972,8.33,-19.839,-11.246
67.682762,7.84,-18.777,-14.044
67.693552,6.93,-18.846,-15.264
67.704342,4.9,-19.669,-14.628
67.715132,2.73,-19.579,-14.328
67.725922,1.05,-18.951,-16.278
67.736712,-0.07,-17.731,-19.972
67.747502,0.14,-17.752,-22.677
67.758292,0.77,-19.5,-24.051
67.769029,2.1,-23.583,-24.274
67.779766,3.15,-29.309,-23.649
67.790503,3.92,-36.332,-23.323
67.80124,4.41,-44.065,-23.407
67.811977,4.83,-51.692,-23.686
67.822714,5.39,-58.497,-23.393
67.833451,5.53,-64.486,-22.885
67.844188,6.16,-68.111,-21.677
67.854925,7.91,-68.354,-21.506
67.865662,10.01,-65.714,-20.756
67.876399,11.69,-61.201,-18.539
67.887136,13.65,-55.503,-14.975
67.897873,14.84,-48.686,-10.504
67.908576,16.59,-41.24,-5.566
67.919279,17.08,-33.069,-0.713
67.929982,17.22,-25.132,3.458
67.940685,17.22,-17.61,7.557
67.951388,16.45,-11.685,11.445
67.962091,14.35,-7.386,15.686
67.972794,12.46,-5.512,19.57
67.983497,10.29,-5.057,22.636
67.9942,7.63,-4.907,23.799
68.004903,6.3,-5.438,23.99
68.015606,5.32,-6.27,23.062
68.026309,3.92,-7.446,22.072
68.036966,1.61,-8.184,19.81
68.047623,-0.49,-9.056,17.097
68.05828,-2.1,-9.187,13.804
68.068937,-3.64,-9.134,10.686
68.079594,-5.46,-8.243,7.645
68.090251,-6.93,-6.629,4.944
68.100908,-7.7,-4.829,3.2
68.111565,-8.82,-2.583,1.748
68.122222,-10.64,-0.077,0.839
68.132879,-13.37,2.303,1.046
68.143536,-15.33,4.87,1.001
68.154193,-17.92,7.538,1.187
68.16485,-19.74,10.215,1.73
68.175471,-20.58,13.07,2.873
68.186092,-21.56,15.446,3.505
68.196713,-22.54,18.418,4.385
68.207334,-23.59,21.78,4.267
68.217955,-24.64,25.405,4.266
68.228576,-25.55,29.128,4.923
68.239197,-25.48,33.304,5.019
68.249818,-24.64,37.769,5.096
68.260439,-23.1,41.22,4.07
68.27106,-22.33,43.044,3.396
68.281681,-21.84,43.815,3.461
68.292302,-22.05,44.492,3.651
68.302916,-22.05,45.125,4.9
68.31353,-22.19,46.175,7.005
68.324144,-22.47,47.558,9.239
68.334758,-24.15,49.261,10.463
68.345372,-24.99,50.859,9.465
68.355986,-25.41,52.424,10.665
68.3666,-25.9,55.174,12.003
68.377214,-25.9,57.055,8.994
68.387828,-27.58,57.696,9.391
68.398442,-28.28,58.641,14.107
68.409056,-28.7,57.932,13.698
68.41967,-28.77,56.824,11.512
68.430271,-29.54,55.292,12.948
68.440872,-28.91,54.197,14.319
68.451473,-26.95,53.191,12.364
68.462074,-23.8,51.496,11.497
68.472675,-20.58,49.825,12.908
68.483276,-16.17,48.119,14.526
68.493877,-12.46,46.537,15.029
68.504478,-9.31,44.887,15.52
68.515079,-6.79,42.689,16.697
68.52568,-5.18,40.386,18.067
68.536281,-4.55,38.039,19.288
68.546882,-4.76,36.408,18.859
68.557483,-5.25,34.697,17.278
68.568083,-5.88,32.604,15.842
68.578683,-5.6,30.666,13.937
68.589283,-4.9,28.715,12.1
68.599883,-4.34,27.08,8.471
68.610483,-3.57,25.559,5.004
68.621083,-2.31,24.119,1.481
68.631683,-1.33,22.862,-1.868
68.642283,0.28,21.154,-5.084
68.652883,1.12,19.678,-7.192
68.663483,1.68,17.946,-9.061
68.674083,2.38,16.304,-10.63
68.684683,2.31,14.722,-12.544
68.695261,2.03,13.043,-13.906
68.705839,0.21,11.863,-14.47
68.716417,-1.54,9.876,-14.891
68.726995,-2.38,8.076,-14.356
68.737573,-3.08,6.754,-13.309
68.748151,-3.43,4.99,-11.772
68.758729,-3.85,4.69,-9.266
68.769307,-4.2,2.497,-7.307
68.779885,-4.13,0.49,-5.6
68.790463,-3.71,-1.326,-3.361
68.801041,-3.22,-3.191,-0.847
68.811619,-2.31,-5.044,0.39
68.822197,-1.4,-6.005,1.002
68.83278,-0.49,-6.739,0.731
68.843363,1.4,-7.307,-0.08
68.853946,2.87,-8.848,-0.21
68.864529,4.27,-10.75,0.095
68.875112,5.95,-13.093,0.89
68.885695,4.34,-15.466,1.04
68.896278,1.68,-16.893,-0.136
68.906861,-2.03,-17.684,-2.905
68.917444,-6.09,-17.389,-6.194
68.928027,-9.52,-15.694,-8.951
68.93861,-12.74,-14.125,-10.594
68.949193,-15.54,-11.964,-11.563
68.959776,-16.73,-9.632,-11.081
68.970359,-17.85,-7.896,-9.638
68.980981,-18.62,-6.453,-7.748
68.991603,-19.18,-5.905,-6.017
69.002225,-20.79,-6.477,-5.194
69.012847,-23.52,-8.837,-5.112
69.023469,-25.9,-12.555,-4.986
69.034091,-28.63,-17.713,-4.758
69.044713,-30.87,-23.325,-5.179
69.055335,-33.11,-29.582,-6.78
69.065957,-34.79,-35.916,-8.75
69.076579,-36.26,-42.259,-11.076
69.087226,-36.89,-47.405,-14.543
69.097873,-37.73,-51.213,-19.55
69.10852,-39.69,-54.215,-24.7
69.119167,-41.3,-56.839,-28.361
69.129814,-43.4,-59.734,-30.08
69.140461,-45.57,-61.867,-30.882
69.151108,-47.25,-63.619,-30.623
69.161755,-46.76,-63.874,-30.383
69.172402,-45.22,-62.626,-31.016
69.183049,-42.42,-60.89,-31.989
69.193696,-38.22,-57.812,-32.513
69.204343,-34.3,-54.917,-32.002
69.21499,-28.77,-52.176,-31.022
69.225652,-23.59,-49.491,-30.122
69.236314,-18.9,-46.859,-28.52
69.246976,-13.72,-43.867,-27.353
69.257638,-9.38,-41.117,-26.015
69.2683,-5.46,-37.833,-25.294
69.278962,-1.12,-34.171,-25.501
69.289624,3.5,-30.363,-25.327
69.300286,7.56,-26.353,-24.691
69.310948,11.06,-23.392,-22.534
69.32161,14.42,-21.397,-19.339
69.332272,16.59,-20.67,-14.591
69.342934,17.71,-20.892,-8.091
69.353626,18.83,-20.705,-2.3
69.364318,18.69,-20.461,2.363
69.37501,19.18,-20.481,6.909
69.385702,18.2,-20.168,10.375
69.396394,17.01,-19.442,12.707
69.407086,14.91,-18.72,14.256
69.417778,13.65,-17.674,15.578
69.42847,11.83,-16.822,16.794
69.439162,10.92,-15.686,17.208
69.449854,10.85,-14.393,17.933
69.460546,11.69,-12.746,17.868
69.471238,13.23,-10.606,16.611
69.481969,13.93,-7.966,13.735
69.4927,14.49,-4.629,10.13
69.503431,14.28,-1.836,6.784
69.514162,12.95,1.095,3.463
69.524893,11.76,4.521,-1.051
69.535624,10.01,7.404,-5.305
69.546355,9.1,9.941,-9.62
69.557086,7.56,12.751,-14.669
69.567817,5.25,15.082,-20.228
69.578548,1.19,17.039,-26.494
69.589279,-3.92,18.446,-32.856
69.60001,-9.73,19.84,-39.15
69.610737,-16.66,21.246,-44.304
69.621464,-22.47,21.833,-48.038
69.632191,-28.35,22.344,-48.517
69.642918,-33.74,21.594,-47.086
69.653645,-37.94,21.25,-43.521
69.664372,-40.6,21.048,-39.15
69.675099,-43.12,20.627,-34.746
69.685826,-44.87,21.021,-30.127
69.696553,-45.15,21.569,-25.979
69.70728,-45.5,22.295,-21.231
69.718007,-46.06,23.484,-16.686
69.728734,-46.48,24.75,-11.771
69.739461,-46.97,26.077,-7.201
69.750186,-47.95,27.723,-3.641
69.760911,-49.35,30.072,-1.237
69.771636,-51.38,32.594,-0.224
69.782361,-54.04,34.91,0.753
69.793086,-56.49,36.524,2.886
69.803811,-57.75,37.595,5.278
69.814536,-58.24,37.984,7.906
69.825261,-57.47,37.332,11.203
69.835986,-53.76,36.513,16.247
69.846711,-47.67,35.748,20.59
69.857436,-40.18,35.699,23.283
69.868161,-31.99,35.834,26.15
69.878878,-24.01,36.146,28.408
69.889595,-17.08,36.827,28.173
69.900312,-12.18,37.614,26.535
69.911029,-9.24,37.699,24.844
69.921746,-8.19,37.127,23.25
69.932463,-9.24,36.023,20.639
69.94318,-10.85,35.309,18.238
69.953897,-12.95,34.348,15.226
69.964614,-14.84,32.916,12.059
69.975331,-15.61,31.671,9.849
69.986048,-14.49,30.734,7.907
69.996765,-13.16,29.525,6.699
70.007482,-11.06,27.907,6.2
70.018193,-9.24,26.285,6.127
70.028904,-7.21,24.27,6.27
70.039615,-4.69,22.214,7.044
70.050326,-2.94,19.879,8.196
70.061037,-2.45,17.211,9.219
70.071748,-2.52,14.356,10.492
70.082459,-2.94,11.274,11.442
70.09317,-3.43,8.728,11.774
70.103881,-4.83,6.348,11.568
70.114592,-5.32,4.349,12.424
70.125303,-6.02,2.629,12.903
70.136014,-5.53,1.044,13.831
70.146754,-4.34,-0.095,15.052
70.157494,-3.15,-1.555,16.074
70.168234,-1.26,-2.714,17.007
70.178974,1.19,-3.85,17.802
70.189714,3.5,-4.957,19.242
70.200454,6.58,-6.1,20.888
70.211194,9.1,-7.207,22.328
70.221934,11.48,-8.743,24.189
70.232674,13.3,-10.369,25.751
70.243414,15.61,-12.287,27.758
70.254154,17.71,-14.144,29.421
70.264894,19.6,-16.078,30.715
70.275619,21.98,-17.375,31.623
70.286344,22.82,-18.336,31.027
70.297069,23.38,-18.758,29.389
70.307794,22.75,-18.665,26.847
70.318519,22.19,-18.617,22.946
70.329244,20.65,-17.73,16.705
70.339969,18.41,-16.466,10.744
70.350694,14.98,-15.96,5.858
70.361419,11.34,-15.352,1.202
70.372144,8.4,-14.886,-3.051
70.382869,4.76,-15.199,-6.518
70.393594,0.63,-16.059,-9.3
70.404319,-3.85,-16.684,-11.4
70.415044,-8.61,-17.199,-12.913
70.425787,-13.44,-18.087,-13.922
70.43653,-18.27,-18.525,-15.066
70.447273,-22.33,-19.413,-16.075
70.458016,-25.34,-20.861,-16.331
70.468759,-26.6,-22.288,-15.09
70.479502,-27.3,-23.176,-14.891
70.490245,-27.65,-23.748,-16.484
70.500988,-27.58,-24.588,-17.77
70.511731,-27.51,-25.954,-16.873
70.522474,-27.3,-27.742,-13.99
70.533217,-26.18,-29.441,-10.807
70.543953,-24.78,-30.535,-9.436
70.554689,-22.47,-30.256,-11.021
70.565425,-20.09,-28.768,-13.815
70.576161,-18.76,-26.664,-16.074
70.586897,-18.97,-24.182,-16.845
70.597633,-20.37,-21.405,-17.279
70.608369,-19.04,-17.11,-16.238
70.619105,-14.84,-12.025,-13.635
70.629841,-12.32,-6.656,-10.627
70.640577,-12.53,-2.56,-8.057
70.651313,-12.25,0.62,-5.933
70.662049,-10.99,3.487,-2.442
70.672785,-7.63,6.318,1.256
70.683499,-4.55,8.103,4.841
70.694213,-2.1,9.279,8.247
70.704927,-0.21,10.245,12.042
70.715641,0.21,10.484,15.922
70.726355,-1.4,10.177,19.28
70.737069,-2.31,9.755,22.475
70.747783,-3.64,9.079,25.91
70.758497,-5.46,8.073,28.789
70.769211,-6.65,6.89,31.068
70.779925,-7.84,5.426,32.516
70.790639,-9.38,4.283,34.163
70.801353,-10.78,3.395,35.57
70.812067,-12.88,2.357,35.813
70.8228,-12.04,1.704,36.693
70.833533,-11.9,4.159,19.143
70.844266,-12.67,-0.664,35.21
70.854999,-13.65,-1.406,33.373
70.865732,-14,-2.153,30.753
70.876465,-13.65,-2.372,28.369
70.887198,-13.51,-2.697,24.971
70.897931,-13.37,-2.434,20.255
70.908664,-12.18,-1.9,16.013
70.919397,-11.2,-1.584,11.804
70.93013,-9.66,-0.98,7.575
70.940863,-7.63,0.329,4.181
70.951674,-4.83,2.145,0.734
70.962485,-2.03,4.444,-1.42
70.973296,0.56,7.144,-3.432
70.984107,3.85,9.78,-4.673
70.994918,6.09,12.416,-4.706
71.005729,7.91,14.983,-3.542
71.01654,9.1,17.7,-2.423
71.027351,9.45,20.83,-1.232
71.038162,8.96,24.058,-0.591
71.048973,7.77,27.481,0.154
71.059784,5.11,30.761,1.301
71.070626,0.42,32.716,2.712
71.081468,-4.06,33.941,4.634
71.09231,-6.51,35.04,6.463
71.103152,-6.37,36.541,8.433
71.113994,-4.83,37.903,10.38
71.124836,-3.64,39.108,10.805
71.135678,-2.66,39.472,8.737
71.14652,-0.84,39.4,9.151
71.157362,1.26,38.67,12.078
71.168204,1.82,37.04,12.857
71.179046,2.8,34.692,14.078
71.189888,3.92,31.213,15.668
71.20073,6.3,28.172,17.193
71.21161,8.89,25.703,20.312
71.22249,12.32,24.714,23.905
71.23337,16.38,24.175,26.155
71.24425,20.37,24.042,28.122
71.25513,23.94,24.209,31.208
71.26601,27.58,24.359,34.788
71.27689,30.45,25.612,37.355
71.28777,31.64,28.099,39.784
71.29865,31.85,32.153,39.361
71.30953,32.41,37.558,36.121
71.32041,32.13,42.424,32.714
71.33129,31.85,46.349,28.999
71.34221,31.22,48.655,24.785
71.35313,30.52,49.705,22.056
71.36405,29.82,49.409,18.095
71.37497,29.96,47.076,12.779
71.38589,31.08,43.986,9.746
71.39681,30.1,41.933,5.262
71.40773,28.56,40.416,-1.048
71.41865,27.93,40.066,-6.725
71.42957,26.25,40.24,-11.741
71.44049,23.31,40.3,-15.711
71.45141,20.58,42.425,-17.682
71.46233,17.08,46.399,-19.256
71.473269,14,50.563,-20.298
71.484208,11.9,54.456,-19.399
71.495147,11.48,56.682,-16.305
71.506086,10.57,57.806,-12.197
71.517025,9.45,58.261,-7.923
71.527964,7.56,58.172,-4.598
71.538903,4.13,57.82,-1.391
71.549842,-0.56,56.786,0.844
71.560781,-5.53,54.187,1.878
71.57172,-11.48,50.453,3.707
71.582659,-17.36,45.778,5.229
71.593598,-23.31,40.758,6.689
71.604537,-28.14,36.236,6.532
71.615479,-30.73,32.501,4.736
71.626421,-31.57,28.925,2.044
71.637363,-31.5,25.092,-1.617
71.648305,-29.61,21.215,-5.429
71.659247,-27.86,17.707,-9.317
71.670189,-25.48,14.592,-13.42
71.681131,-22.68,12.592,-17.398
71.692073,-21.42,12.474,-19.551
71.703015,-19.67,13.869,-19.802
71.713957,-16.73,16.432,-18.213
71.724899,-14.49,20.427,-15.874
71.735841,-12.81,23.712,-12.736
71.746774,-11.76,27.885,-8.588
71.757707,-10.57,32.776,-6.091
71.76864,-10.08,36.336,-4.113
71.779573,-9.73,39.374,3.247
71.790506,-7.14,44.785,9.247
71.801439,-4.76,51.366,6.996
71.812372,-2.03,57.403,5.004
71.823305,1.75,62.111,7.327
71.834238,4.41,64.723,8.64
71.845171,7.28,66.552,7.541
71.856104,10.01,67.776,5.838
71.867037,12.88,66.357,6.227
71.87797,14.49,64.565,8.328
71.888835,15.89,61.961,8.58
71.8997,15.96,59.346,8.901
71.910565,15.82,56.244,10.77
71.92143,15.61,52.388,13.289
71.932295,15.47,48.768,16.489
71.94316,15.12,45.524,18.76
71.954025,13.86,43.111,19.543
71.96489,12.04,40.711,20.257
71.975755,10.36,38.29,20.683
71.98662,6.86,35.699,19.658
71.997485,4.06,32.706,18.49
72.00835,0.63,30.2,16.982
72.019215,-2.8,27.495,14.586
72.030017,-5.53,24.713,13.029
72.040819,-7.7,21.692,11.217
72.051621,-10.43,19.076,9.121
72.062423,-13.16,16.768,7.293
72.073225,-15.47,15.28,5.253
72.084027,-17.36,14.128,4.126
72.094829,-18.48,13.021,3.149
72.105631,-18.76,11.403,2.65
72.116433,-18.76,9.692,3.486
72.127235,-19.11,8.216,3.794
72.138037,-19.04,7.129,3.105
72.148839,-18.2,6.488,1.499
72.159604,-16.73,5.134,-0.09
72.170369,-14.21,2.145,-0.475
72.181134,-11.48,-2.851,-0.36
72.191899,-7.91,-11.139,1.092
72.202664,-3.92,-22.618,2.907
72.213429,-0.28,-35.322,4.007
72.224194,3.08,-48.477,2.825
72.234959,5.74,-61.352,0.057
72.245724,7.63,-73.972,-2.95
72.256489,9.03,-87.601,-5.069
72.267254,8.75,-101.882,-5.099
72.278019,6.93,-116.724,-4.375
72.28873,4.34,-130.109,-5.456
72.299441,1.05,-140.373,-8.119
72.310152,-2.03,-149.022,-11.066
72.320863,-4.55,-155.835,-13.546
72.331574,-6.37,-161.111,-14.263
72.342285,-7.84,-165.308,-14.648
72.352996,-8.05,-169.058,-12.324
72.363707,-7.56,-171.649,-9.724
72.374418,-5.95,-171.921,-7.782
72.385129,-3.22,-170.059,-6.245
72.39584,0.49,-167.058,-5.929
72.406551,4.48,-164.362,-7.515
72.417262,8.68,-162.476,-6.117
72.427922,13.23,-162.548,0.339
72.438582,18.06,-161.793,6.94
72.449242,23.17,-159.189,10.314
72.459902,27.86,-155.057,12.677
72.470562,30.66,-150.49,17.818
72.481222,31.92,-144.371,24.228
72.491882,31.15,-129.93,29.405
72.502542,30.03,-123.048,33.106
72.513202,29.05,-116.061,39.029
72.523862,27.37,-107.727,42.56
72.534522,24.92,-98.032,43.203
72.545182,23.94,-87.622,42.622
72.555828,23.52,-76.747,41.412
72.566474,23.59,-65.917,38.844
72.57712,23.38,-55.991,34.552
72.587766,22.26,-46.709,29.081
72.598412,20.72,-39.152,23.305
72.609058,19.67,-32.831,16.885
72.619704,17.85,-27.848,10.798
72.63035,15.54,-24.224,4.756
72.640996,13.23,-21.248,-0.832
72.651642,12.32,-18.909,-6.035
72.662288,11.55,-17.324,-10.589
72.672934,11.27,-15.816,-14.304
72.683565,11.2,-14.114,-16.705
72.694196,11.06,-13.25,-17.974
72.704827,9.59,-11.839,-17.512
72.715458,6.16,-10.971,-15.582
72.726089,-1.61,-10.536,-11.596
72.73672,-12.11,-10.289,-7.358
72.747351,-22.89,-10.292,-2.099
72.757982,-32.2,-10.449,3.631
72.768613,-39.83,-11.628,9.109
72.779244,-46.27,-12.739,13.391
72.789875,-52.08,-13.813,16.258
72.800506,-57.26,-15.512,18.233
72.811137,-60.2,-16.959,19.187
72.821761,-62.16,-19.096,20.018
72.832385,-62.58,-20.495,20.695
72.843009,-61.6,-22.194,20.254
72.853633,-59.78,-23.135,18.737
72.864257,-59.15,-24.928,17.213
72.874881,-57.61,-26.943,17.355
72.885505,-56.14,-28.788,16.532
72.896129,-54.39,-30.374,15.044
72.906753,-51.03,-31.854,13.362
72.917377,-47.46,-32.244,11.942
72.928001,-43.54,-32.593,9.891
72.938625,-39.76,-32.82,8.358
72.949271,-34.37,-32.848,7.713
72.959917,-28.91,-33.367,7.835
72.970563,-22.54,-34.264,7.677
72.981209,-17.92,-37.346,6.209
72.991855,-15.75,-40.119,7.426
73.002501,-15.68,-42.305,8.534
73.013147,-17.57,-43.367,5.29
73.023793,-17.36,-42.431,1.19
73.034439,-14.42,-39.302,-6.077
73.045085,-8.89,-36.562,-14.763
73.055731,-1.82,-34.71,-22.042
73.066377,5.25,-34.163,-26.353
73.077042,11.06,-34.228,-29.207
73.087707,14.42,-35.23,-30.379
73.098372,16.45,-36.195,-30.549
73.109037,15.75,-36.15,-29.191
73.119702,14.7,-35.59,-27.528
73.130367,12.88,-34.966,-25.428
73.141032,9.73,-34.418,-21.28
73.151697,6.23,-35.163,-15.441
73.162362,2.17,-35.653,-8.632
73.173027,-2.17,-36.702,-1.069
73.183692,-6.16,-37.532,6.461
73.194357,-10.29,-38.001,13.557
73.205022,-14.49,-38.28,19.976
73.2157,-18.13,-38.389,25.43
73.226378,-21.42,-37.995,28.84
73.237056,-23.94,-37.845,31.212
73.247734,-25.55,-37.366,32.932
73.258412,-26.81,-37.293,33.726
73.26909,-28.14,-36.677,34.262
73.279768,-28.98,-36.032,34.233
73.290446,-28.7,-34.812,32.956
73.301124,-28.07,-33.356,31.151
73.311802,-27.93,-32.302,29.204
73.32248,-28,-31.382,28.016
73.333158,-29.68,-30.688,30.129
73.343876,-33.04,-30.651,34.756
73.354594,-37.59,-29.62,41.406
73.365312,-42.84,-26.104,46.859
73.37603,-45.92,-21.176,50.358
73.386748,-46.2,-14.49,50.329
73.397466,-45.43,-7.674,46.342
73.408184,-43.47,-1.377,38.851
73.418902,-41.16,2.547,31.511
73.42962,-38.36,4.168,24.333
73.440338,-36.61,2.395,18.263
73.451056,-36.05,-0.996,14.112
73.461774,-35.77,-5.526,9.972
73.472492,-36.54,-11.511,5.22
73.483242,-36.61,-17.205,1.231
73.493992,-35.42,-22.558,-2.272
73.504742,-33.32,-27.352,-6.529
73.515492,-29.96,-30.677,-9.034
73.526242,-26.18,-31.813,-9.448
73.536992,-21.49,-31.813,-8.239
73.547742,-16.1,-30.819,-9.841
73.558492,-14.14,-28.63,-11.374
73.569242,-13.51,-25.503,-6.132
73.579992,-13.51,-22.708,-3.435
73.590742,-12.81,-19.594,-2.957
73.601492,-10.64,-16.662,-1.445
73.612278,-8.89,-14.577,3.258
73.623064,-5.18,-14.005,8.477
73.63385,-0.49,-14.463,10.671
73.644636,4.76,-15.837,13.627
73.655422,9.52,-17.543,17.662
73.666208,12.25,-20.292,21.158
73.676994,14.07,-22.238,23.729
73.68778,15.12,-23.293,23.259
73.698566,15.75,-23.159,20.084
73.709352,15.19,-21.497,17.107
73.720138,13.93,-19.507,13.477
73.730924,11.27,-17.078,9.783
73.741711,9.24,-15.668,6.62
73.752498,8.33,-14.277,4.377
73.763285,7.35,-14.002,2.009
73.774072,6.86,-14.492,0.359
73.784859,5.88,-14.618,-0.943
73.795646,4.41,-15.056,-2.086
73.806433,2.24,-14.789,-3.603
73.81722,-1.19,-14.246,-5.071
73.828007,-5.6,-13.837,-6.989
73.838794,-9.38,-13.148,-9.284
73.849581,-14.07,-12.463,-11.154
73.860368,-18.83,-11.936,-12.127
73.871155,-23.8,-11.165,-13.27
73.881965,-28,-10.715,-14.613
73.892775,-32.41,-9.909,-15.963
73.903585,-36.82,-8.798,-17.829
73.914395,-42.21,-6.921,-20.412
73.925205,-49.21,-4.042,-24.24
73.936015,-57.4,-0.685,-28.766
73.946825,-65.8,2.651,-33.58
73.957635,-72.31,4.808,-35.332
73.968445,-76.86,6.009,-35.689
73.979255,-79.87,7.185,-34.7
73.990065,-80.57,8.572,-34.1
74.000875,-78.68,10.36,-33.358
74.011667,-74.76,12.598,-32.75
74.022459,-69.65,15.911,-32.592
74.033251,-63.77,18.661,-32.463
74.044043,-57.68,19.873,-32.889
74.054835,-51.94,19.338,-32.272
74.065627,-45.57,18.584,-30.415
74.076419,-38.57,18.734,-30.46
74.087211,-31.43,18.989,-30.699
74.098003,-25.48,19.958,-30.955
74.108795,-20.3,20.473,-30.65
74.119587,-13.23,20.94,-30.071
74.130379,-4.13,19.837,-31.474
74.141171,3.22,18.531,-29.714
74.151961,9.17,18.143,-23.882
74.162751,14.42,17.551,-24.555
74.173541,18.2,18.239,-29.267
74.184331,19.25,21.528,-30.18
74.195121,17.71,25.976,-32.026
74.205911,14.98,31.007,-37.18
74.216701,13.79,34.729,-41.358
74.227491,12.95,36.217,-42.943
74.238281,12.6,36.161,-41.816
74.249071,11.62,35.752,-38.69
74.259861,9.73,36.157,-36.557
74.270651,9.24,35.979,-34.74
74.281412,9.17,35.351,-31.581
74.292173,9.73,35.579,-27.632
74.302934,10.5,35.243,-22.502
74.313695,11.34,33.845,-15.783
74.324456,11.97,32.654,-9.027
74.335217,11.76,32.075,-2.519
74.345978,9.73,32.453,3.803
74.356739,7.56,34.379,8.194
74.3675,5.81,37.032,11.292
74.378261,3.78,40.086,14.532
74.389022,1.89,42.827,17.929
74.399783,0.28,45.18,21.116
74.410544,-1.89,47.56,23.739
74.42129,-3.43,50.796,25.945
74.432036,-4.62,55.638,26.301
74.442782,-5.74,61.388,25.538
74.453528,-7.63,66.98,25.671
74.464274,-9.31,71.201,25.918
74.47502,-10.22,74.563,25.8
74.485766,-10.85,76.274,26.172
74.496512,-11.27,77.957,25.901
74.507258,-11.62,79.473,24.96
74.518004,-12.04,80.43,22.356
74.52875,-12.25,80.989,19.185
74.539496,-11.62,81.029,16.136
74.550202,-10.78,80.205,13.147
74.560908,-9.52,78.689,10.463
74.571614,-7.35,77.042,8.111
74.58232,-4.76,75.124,5.285
74.593026,-2.38,72.179,2.634
74.603732,-1.05,69.762,1.426
74.614438,-1.12,67.317,1.99
74.625144,-2.1,64.552,1.147
74.63585,-3.15,61.332,-0.345
74.646556,-3.92,58.4,-0.649
74.657262,-4.41,54.487,0.58
74.667968,-3.57,49.427,3.882
74.678674,-1.26,45.218,8.4
74.689365,2.73,42.226,12.066
74.700056,6.79,41.858,14.56
74.710747,11.27,43.171,14.365
74.721438,14.56,44.513,11.19
74.732129,16.31,44.761,11.802
74.74282,16.17,44.931,14.462
74.753511,16.24,45.284,14.88
74.764202,16.38,45.183,14.648
74.774893,16.59,45.252,15.869
74.785584,17.08,44.863,19.283
74.796275,18.34,45.087,22.45
74.806966,17.99,44.053,23.476
74.817623,17.64,42.062,27.106
74.82828,16.17,39.167,31.429
74.838937,13.58,36.204,34.531
74.849594,10.08,32.79,37.768
74.860251,7.21,29.449,38.174
74.870908,3.99,25.787,35.964
74.881565,2.52,21.054,33.779
74.892222,1.89,16.127,31.489
74.902879,2.8,11.289,27.082
74.913536,3.99,5.952,21.876
74.924193,6.37,1.259,16.642
74.93485,8.33,-2.419,11.302
74.945507,9.38,-5.413,5.301
74.956164,9.87,-8.005,-0.558
74.966821,9.87,-10.065,-6.608
74.977475,8.82,-12.09,-11.656
74.988129,6.3,-14.324,-15.107
74.998783,3.01,-16.806,-17.961
75.009437,0,-19.54,-19.794
75.020091,-3.36,-21.916,-20.426
75.030745,-6.65,-23.449,-20.199
75.041399,-8.68,-25.115,-19.213
75.052053,-10.22,-25.61,-18.021
75.062707,-10.71,-26.242,-15.645
75.073361,-11.27,-26.38,-13.252
75.08399,-11.62,-26.878,-10.426
75.094619,-12.18,-27.137,-8.552
75.105248,-12.04,-27.932,-6.062
75.115877,-12.95,-28.986,-4.116
75.126506,-13.44,-30.024,-2.664
75.137135,-15.05,-30.968,-1.338
75.147764,-17.43,-32.043,-0.888
75.158393,-19.74,-33.275,-0.75
75.169022,-22.19,-34.01,-2.23
75.179651,-24.57,-35.396,-2.83
75.19028,-26.04,-36.252,-3.62
75.200909,-28.28,-36.504,-6.223
75.211538,-29.54,-35.969,-9.257
75.222145,-30.24,-35.617,-12.464
75.232752,-31.36,-35.97,-15.299
75.243359,-31.64,-36.98,-18.036
75.253966,-32.34,-38.335,-19.625
75.264573,-33.18,-39.965,-20.054
75.27518,-32.76,-40.127,-21.149
75.285787,-29.96,-39.556,-23.181
75.296394,-26.88,-40.184,-23.647
75.307001,-21.7,-39.875,-19.754
75.317608,-17.43,-39.202,-17.93
75.328215,-11.34,-36.939,-16.251
75.338822,-4.48,-34.502,-15.964
75.349405,2.94,-30.796,-14.813
75.359988,8.68,-26.266,-13.09
75.370571,14.28,-21.38,-13.792
75.381154,19.67,-17.406,-17.783
75.391737,23.17,-14.84,-20.245
75.40232,24.01,-13.907,-17.877
75.412903,23.59,-14.267,-13.817
75.423486,21.98,-16.323,-10.626
75.434069,21,-18.029,-6.591
75.444652,21.35,-20.523,-2.126
75.455235,21.7,-22.744,1.605
75.465818,22.47,-24.779,5.084
75.476401,21.91,-26.985,8.321
75.486994,20.51,-29.348,11.245
75.497587,18.06,-31.38,14.298
75.50818,14.49,-33.386,17.214
75.518773,10.08,-34.967,20.134
75.529366,5.53,-36.204,21.906
75.539959,0.49,-37.895,23.03
75.550552,-4.41,-38.771,23.159
75.561145,-9.45,-39.014,22.121
75.571738,-14.28,-39.335,20.714
75.582331,-18.06,-39.335,18.298
75.592924,-21.28,-39.039,16.217
75.603517,-23.38,-38.971,13.813
75.614134,-24.22,-38.663,11.663
75.624751,-24.36,-38.262,9.389
75.635368,-23.73,-37.666,7.219
75.645985,-23.59,-36.75,5.248
75.656602,-23.52,-35.043,3.63
75.667219,-23.24,-33.324,1.943
75.677836,-23.31,-31.292,0.098
75.688453,-23.17,-29.298,-1.541
75.69907,-22.54,-27.834,-2.989
75.709687,-22.54,-25.657,-4.453
75.720304,-22.61,-23.686,-5.953
75.730921,-22.54,-21.91,-7.56
75.741551,-22.26,-19.895,-10.118
75.752181,-22.75,-18.797,-11.915
75.762811,-23.38,-18.176,-11.806
75.773441,-25.34,-17.823,-11.388
75.784071,-28.28,-16.907,-12.15
75.794701,-30.24,-15.849,-13.314
75.805331,-31.01,-14.953,-14.365
75.815961,-31.08,-14.105,-13.931
75.826591,-30.24,-13.663,-12.005
75.837221,-28,-13.444,-9.621
75.847851,-25.2,-12.304,-7.216
75.858481,-21.35,-10.661,-4.439
75.869111,-16.17,-8.857,-5.4
75.879782,-13.02,-8.289,-5.797
75.890453,-9.66,-8.021,-1.272
75.901124,-7.7,-8.795,2.714
75.911795,-5.18,-9.601,6.481
75.922466,-3.22,-10.842,11.096
75.933137,-0.91,-11.652,17.706
75.943808,2.17,-11.975,21.558
75.954479,5.39,-12.689,21.574
75.96515,8.05,-12.762,23.196
75.975821,9.31,-13.231,29.084
75.986492,9.24,-13.073,33.022
75.997163,9.03,-11.82,33.171
76.007835,9.1,-9.784,30.9
76.018507,9.52,-7.611,27.445
76.029179,10.08,-5.215,23.532
76.039851,10.5,-2.755,18.848
76.050523,9.94,-0.756,13.159
76.061195,8.68,0.536,7.842
76.071867,7.21,1.61,3.767
76.082539,5.04,2.088,-0.556
76.093211,1.54,1.703,-3.609
76.103883,-2.03,1.353,-6.869
76.114555,-5.04,1.345,-10.851
76.125227,-7.7,1.352,-14.12
76.135899,-9.59,1.839,-16.877
76.146605,-11.97,1.397,-17.595
76.157311,-13.86,0.922,-17.323
76.168017,-14.77,0.132,-15.259
76.178723,-15.33,-0.655,-12.412
76.189429,-15.89,-1.964,-9.018
76.200135,-16.73,-3.581,-5.891
76.210841,-17.64,-4.785,-2.692
76.221547,-18.41,-5.604,-0.064
76.232253,-19.32,-6.524,2.333
76.242959,-19.95,-7.083,4.295
76.253665,-19.6,-6.71,5.001
76.264371,-17.99,-5.701,5.321
76.275094,-17.08,-4.594,5.09
76.285817,-15.19,-3.361,3.743
76.29654,-14.63,-3.122,2.79
76.307263,-15.75,-2.741,1.436
76.317986,-16.73,-2.843,-0.004
76.328709,-19.39,-3.183,-1.699
76.339432,-23.52,-3.175,-2.55
76.350155,-30.24,-2.6,-3.799
76.360878,-34.65,-2.531,-4.995
76.371601,-36.19,-2.162,-5.072
76.382324,-33.95,-2.239,-6.65
76.393047,-32.9,-2.179,-6.995
76.40377,-30.8,-3.196,-5.255
76.414513,-28.07,-5.637,-7.533
76.425256,-26.46,-9.802,-8.907
76.435999,-24.22,-14.161,-5.553
76.446742,-22.75,-18.159,-3.842
76.457485,-19.39,-20.572,-5.475
76.468228,-15.05,-21.456,-9.328
76.478971,-11.55,-20.334,-13.679
76.489714,-8.26,-17.407,-21.408
76.500457,-5.81,-14.521,-30.921
76.5112,-2.73,-12.868,-40.297
76.521943,-0.49,-12.954,-47.064
76.532686,2.03,-14.285,-50
76.543433,3.29,-15.655,-52.303
76.55418,5.53,-16.807,-53.43
76.564927,6.79,-16.856,-51.946
76.575674,6.65,-16.182,-48.913
76.586421,4.13,-14.807,-45.827
76.597168,-0.07,-13.525,-41.408
76.607915,-5.39,-13.102,-33.728
76.618662,-10.43,-13.352,-24.247
76.629409,-13.93,-14.089,-14.426
76.640156,-17.08,-15.292,-5.184
76.650903,-18.55,-16.832,3.145
76.66165,-18.06,-17.84,11.283
76.672397,-17.15,-18.594,16.766
76.683175,-16.38,-19.137,20.651
76.693953,-14.7,-18.926,22.678
76.704731,-12.95,-18.784,23.485
76.715509,-10.15,-18.24,23.225
76.726287,-5.6,-18.131,22.605
76.737065,0.49,-16.805,21.133
76.747843,7.21,-15.382,19.109
76.758621,13.86,-14.381,16.656
76.769399,18.76,-13.526,13.821
76.780177,22.33,-12.695,11.125
76.790955,25.83,-12.119,8.667
76.801744,30.31,-11.438,7.224
76.812533,34.09,-10.635,6.299
76.823322,35.77,-9.962,5.707
76.834111,34.65,-9.346,3.825
76.8449,32.2,-8.029,1.996
76.855689,25.48,-7.173,1.578
76.866478,17.01,-6.35,0.942
76.877267,9.03,-5.49,1.306
76.888056,0.98,-6.179,3.602
76.898845,-7.14,-6.888,6.817
76.909634,-13.65,-6.608,8.857
76.920423,-17.64,-6.162,9.149
76.931212,-20.16,-5.08,9.056
76.942002,-20.16,-3.539,9.185
76.952792,-18.83,-2.217,9.347
76.963582,-16.1,-0.976,10.774
76.974372,-13.16,1.547,11.788
76.985162,-10.71,5.014,12.683
76.995952,-7,9.811,14.098
77.006742,-2.17,15.045,10.614
77.017532,-1.75,21.436,6.623
77.028322,-3.92,29.846,5.689
77.039112,-9.59,38.206,2.614
77.049902,-15.26,45.708,-0.825
77.060692,-21.42,51.9,-2.079
77.071477,-27.23,56.162,2.368
77.082262,-30.38,59.135,8.081
77.093047,-31.64,61.467,10.98
77.103832,-29.89,63.321,15.785
77.114617,-28.56,64.607,22.196
77.125402,-28.91,65.524,27.476
77.136187,-29.61,67.28,29.207
77.146972,-27.44,70.277,27.532
77.157757,-24.92,72.79,23.355
77.168542,-22.89,74.598,18.343
77.179327,-19.88,75.838,13.728
77.190112,-16.24,77.289,8.724
77.200858,-11.34,79.004,2.629
77.211604,-7.91,80.876,-3.154
77.22235,-3.99,83.52,-7.663
77.233096,0.35,86.427,-10.847
77.243842,6.09,88.624,-13.232
77.254588,10.92,90.242,-13.941
77.265334,15.54,92.262,-12.093
77.27608,16.24,95.258,-12.559
77.286826,16.66,99.293,-12.061
77.297572,17.57,104.471,-10.793
77.308318,18.13,111.559,-10.68
77.319064,19.74,118.214,-9.72
77.32981,23.87,123.348,-6.185
77.340536,26.81,124.877,-1.153
77.351262,28.56,124.603,6.049
77.361988,29.75,122.552,12.44
77.372714,30.94,119.71,18.478
77.38344,30.24,116.953,22.825
77.394166,28,112.793,24.651
77.404892,25.69,106.37,24.798
77.415618,21.42,97.311,23.769
77.426344,17.08,86.24,21.248
77.43707,12.81,75.227,17.6
77.447796,8.33,63.811,11.394
77.458522,2.87,52.424,5.832
77.469243,-3.22,41.71,0.886
77.479964,-9.17,32.463,-5.933
77.490685,-14.49,25.03,-12.148
77.501406,-18.69,17.706,-15.359
77.512127,-22.61,12.126,-14.352
77.522848,-24.99,9.329,-12.998
77.533569,-25.9,9.207,-12.308
77.54429,-25.83,9.775,-9.08
77.555011,-24.01,11.889,-4.941
77.565732,-19.32,14.914,-2.346
77.576453,-15.26,15.6,1.827
77.587174,-11.2,15.483,10.549
77.597883,-7.28,15.371,16.429
77.608592,-4.06,15.213,18.533
77.619301,-1.68,13.887,18.797
77.63001,-0.28,12.367,21.372
77.640719,1.05,12.565,22.26
77.651428,3.08,15.346,16.567
77.662137,4.69,17.722,8.74
77.672846,6.79,19.189,6.866
77.683555,9.59,18.825,8.935
77.694264,11.62,16.968,10.597
77.704973,12.46,13.74,12.374
77.715682,13.23,11.024,14.88
77.726391,13.3,8.165,16.58
77.737072,13.51,5.355,16.795
77.747753,12.67,2.002,17.27
77.758434,11.34,-1.348,18.527
77.769115,9.24,-5.046,18.942
77.779796,6.16,-9.336,18.683
77.790477,1.75,-14.356,18.935
77.801158,-2.45,-20.163,19.617
77.811839,-6.86,-25.146,19.662
77.82252,-12.11,-29.635,18.515
77.833201,-16.94,-33.038,16.849
77.843882,-21.21,-36.241,16.071
77.854563,-24.22,-38.601,14.944
77.865244,-26.6,-40.276,13.156
77.875933,-27.86,-41.148,11.652
77.886622,-28,-40.93,9.202
77.897311,-28.42,-39.742,6.498
77.908,-27.72,-37.877,5.192
77.918689,-27.72,-35.392,2.787
77.929378,-27.65,-32.322,0.698
77.940067,-27.23,-29.618,-0.531
77.950756,-26.25,-27.327,-1.833
77.961445,-26.11,-25.49,-2.575
77.972134,-25.48,-23.146,-3.371
77.982823,-24.92,-21.139,-3.87
77.993521,-23.73,-19.489,-4.36
78.004219,-22.82,-17.766,-5.265
78.014917,-21.14,-15.304,-6.324
78.025615,-18.62,-12.255,-7.492
78.036313,-15.61,-10.609,-7.557
78.047011,-12.88,-9.421,-5.428
78.057709,-10.01,-8.585,-3.717
78.068407,-6.44,-8.358,-2.184
78.079105,-2.87,-9.416,0.188
78.089803,0.42,-11.102,4.511
78.100501,3.99,-13.745,9.02
78.111199,7.28,-16.425,13.737
78.121897,10.22,-19.182,18.084
78.132574,12.11,-20.75,22.143
78.143251,15.68,-20.345,24.276
78.153928,17.5,-20.451,19.637
78.164605,14.98,-21.582,16.381
78.175282,10.78,-24.169,17.347
78.185959,2.94,-29.356,14.513
78.196636,-4.9,-34.872,9.915
78.207313,-14.7,-40.865,6.015
78.21799,-24.01,-46.376,5.825
78.228667,-29.05,-49.775,2.525
78.239344,-32.06,-53.258,-1.501
78.250021,-31.71,-56.502,0.77
78.260698,-29.4,-59.117,4.716
78.271356,-27.23,-59.924,7.275
78.282014,-23.45,-58.018,7.753
78.292672,-17.85,-54.324,5.348
78.30333,-11.83,-49.811,3.94
78.313988,-6.51,-44.357,2.841
78.324646,-3.08,-38.048,0.115
78.335304,0.63,-31.714,-2.749
78.345962,2.66,-26.472,-4.668
78.35662,3.78,-21.813,-5.694
78.367278,3.01,-18.605,-6.55
78.377936,0.98,-15.86,-7.204
78.388594,-0.77,-12.961,-8.327
78.399228,-2.8,-10.459,-10.018
78.409862,-3.92,-8.906,-11.166
78.420496,-5.11,-7.868,-11.41
78.43113,-6.37,-8.213,-10.262
78.441764,-8.12,-9.433,-8.985
78.452398,-9.45,-11.002,-7.342
78.463032,-11.13,-13.066,-5.716
78.473666,-11.9,-15.174,-4.239
78.4843,-12.67,-17.291,-3.12
78.494934,-13.65,-19.594,-1.749
78.505568,-13.23,-21.313,-1.27
78.516202,-12.74,-22.14,-1.416
78.526836,-12.32,-22.773,-1.457
78.537462,-11.48,-23.073,-1.367
78.548088,-11.06,-22.862,-1.757
78.558714,-10.29,-22.27,-2.292
78.56934,-9.73,-21.374,-3.342
78.579966,-9.94,-20.272,-4.356
78.590592,-11.34,-18.548,-5.261
78.601218,-12.46,-17.064,-6.421
78.611844,-13.37,-15.949,-7.504
78.62247,-15.47,-14.737,-6.721
78.633096,-17.36,-13.699,-6.965
78.643722,-18.06,-12.872,-8.027
78.654348,-18.27,-13.5,-8.493
78.664955,-18.34,-14.615,-7.41
78.675562,-17.43,-16.051,-6.526
78.686169,-16.59,-18.159,-5.05
78.696776,-15.47,-20.17,-2.917
78.707383,-12.25,-21.265,-1.546
78.71799,-6.86,-23.596,-2.028
78.728597,-4.06,-28.547,-0.556
78.739204,-2.38,-33.882,7.531
78.749811,-0.84,-36.976,10.966
78.760418,-0.56,-38.773,7.45
78.771025,0.21,-38.595,4.425
78.781632,0.35,-37.358,1.445
78.792239,0.77,-35.632,-3.511
78.802872,0.84,-33.297,-8.288
78.813505,1.4,-32.129,-11.281
78.824138,2.73,-31.578,-13.6
78.834771,2.66,-31.777,-14.488
78.845404,1.68,-32.945,-13.912
78.856037,0.49,-33.707,-13.62
78.86667,-0.63,-34.798,-12.675
78.877303,-0.84,-36.237,-10.157
78.887936,-1.33,-38.917,-7.857
78.898569,-1.75,-41.52,-5.189
78.909202,-2.59,-44.402,-2.143
78.919835,-4.69,-46.961,0.676
78.930466,-7.56,-49.685,4.034
78.941097,-11.62,-52.556,7.01
78.951728,-16.66,-54.879,9.302
78.962359,-22.19,-56.76,11.102
78.97299,-28.91,-58.082,12.149
78.983621,-34.3,-59.019,12.623
78.994252,-39.06,-59.149,11.747
79.004883,-43.33,-59.084,10.977
79.015514,-46.55,-57.908,9.549
79.026145,-48.58,-56.797,7.684
79.036776,-49.7,-55.423,5.936
79.047407,-49.98,-54.211,4.302
79.058038,-49.63,-52.978,2.955
79.068675,-48.65,-51.571,1.426
79.079312,-47.46,-50.026,-0.078
79.089949,-45.99,-48.766,-1.988
79.100586,-44.24,-46.974,-4.089
79.111223,-43.19,-44.926,-6.429
79.12186,-41.65,-42.453,-8.765
79.132497,-40.53,-39.85,-11.434
79.143134,-38.99,-36.89,-14.11
79.153771,-37.24,-34.02,-17.087
79.164408,-35.49,-30.792,-18.864
79.175045,-33.46,-27.528,-20.847
79.185682,-31.29,-24.422,-23.142
79.196321,-29.19,-21.548,-24.128
79.20696,-28.07,-18.421,-22.511
79.217599,-27.3,-15.854,-20.139
79.228238,-25.48,-13.145,-18.169
79.238877,-22.19,-11.036,-16.02
79.249516,-18.2,-9.389,-12.46
79.260155,-12.88,-8.204,-7.488
79.270794,-6.93,-7.04,-1.597
79.281433,-0.35,-5.685,3.618
79.292072,5.81,-3.977,8.042
79.302711,10.92,-1.965,13.159
79.31335,16.73,-0.111,15.547
79.323989,18.34,1.843,12.124
79.334647,13.72,4.754,14.557
79.345305,10.43,8.802,17.403
79.355963,5.6,11.437,12.536
79.366621,0.77,13.135,9.353
79.377279,-4.06,13.306,12.013
79.387937,-8.05,12.488,15.849
79.398595,-11.2,11.352,16.644
79.409253,-11.34,10.253,17.232
79.419911,-10.99,8.478,20.047
79.430569,-11.06,7.225,24.73
79.441227,-11.41,6.378,27.922
79.451885,-11.2,7.392,29.025
79.462543,-9.17,8.945,27.877
79.473201,-6.65,11.272,25.16
79.483884,-3.99,14.046,22.734
79.494567,-1.82,16.689,19.433
79.50525,-0.42,18.821,15.402
79.515933,0.49,20.082,11.075
79.526616,2.03,20.888,7.308
79.537299,2.31,20.941,4.19
79.547982,1.54,20.336,-0.039
79.558665,0.84,19.544,-4.017
79.569348,-0.21,18.632,-7.306
79.580031,-1.19,17.309,-9.884
79.590714,-3.36,15.44,-11.778
79.601397,-6.44,12.848,-12.803
79.612118,-9.17,10.951,-12.925
79.622839,-11.9,8.968,-12.564
79.63356,-14.49,7.062,-11.833
79.644281,-16.59,4.804,-10.313
79.655002,-18.48,2.841,-8.455
79.665723,-19.04,1.252,-7.1
79.676444,-18.34,-0.354,-5.251
79.687165,-18.06,-2.133,-3.219
79.697886,-17.01,-3.528,-1.759
79.708607,-15.89,-5.016,-0.174
79.719328,-16.24,-6.63,1.319
79.730049,-16.8,-7.952,2.365
79.740773,-18.13,-9.44,2.742
79.751497,-18.69,-10.725,3.582
79.762221,-18.83,-12.12,3.834
79.772945,-20.44,-14.427,3.214
79.783669,-22.19,-17.335,3.98
79.794393,-23.52,-20.607,5.607
79.805117,-26.18,-24.986,6.256
79.815841,-29.82,-29.629,5.58
79.826565,-31.08,-33.992,4.526
79.837289,-31.78,-38.554,2.584
79.848013,-31.15,-43.429,2.009
79.858737,-30.8,-47.305,0.615
79.869461,-29.54,-51.389,-0.816
79.880219,-22.89,-54.593,-2.803
79.890977,-16.1,-57.343,-6.557
79.901735,-9.59,-59.824,-6.995
79.912493,-1.54,-60.189,-8.552
79.923251,6.37,-59.679,-15.072
79.934009,15.89,-58.793,-23.73
79.944767,24.43,-57.427,-30.668
79.955525,31.78,-54.172,-37.842
79.966283,37.38,-50.816,-47.201
79.977041,41.37,-47.03,-56.982
79.987799,42.56,-43.3,-64.428
79.998557,41.02,-40.405,-67.542
80.009324,33.6,-38.8,-68.183
80.020091,26.32,-38.434,-63.001
80.030858,19.53,-38.222,-56.14
80.041625,12.74,-37.613,-48.711
80.052392,7.07,-36.622,-40.22
80.063159,2.03,-35.425,-30.485
80.073926,-1.68,-32.613,-22.241
80.084693,-2.8,-30.528,-17.538
80.09546,-4.55,-31.092,-13.941
80.106227,-7.98,-31.723,-7.939
80.116994,-10.15,-32.911,-1.609
80.127761,-10.71,-34.653,5.049
80.13855,-11.69,-36.781,11.071
80.149339,-12.46,-38.034,15.755
80.160128,-12.46,-39.059,18.346
80.170917,-11.76,-38.73,20.11
80.181706,-11.13,-38.309,21.748
80.192495,-10.36,-37.011,22.048
80.203284,-10.43,-34.789,21.942
80.214073,-10.99,-32.583,21.123
80.224862,-11.48,-30.604,19.979
80.235651,-12.46,-27.725,18.568
80.24644,-14.84,-25.414,17.554
80.257229,-19.18,-22.909,15.436
80.268036,-25.34,-20.683,13.697
80.278843,-31.71,-18.696,11.701
80.28965,-37.94,-16.523,9.454
80.300457,-44.38,-14.662,6.158
80.311264,-48.44,-12.006,2.787
80.322071,-52.08,-9.412,-1.446
80.332878,-54.6,-6.489,-6.333
80.343685,-54.53,-2.528,-12.671
80.354492,-52.43,2.045,-20.466
80.365299,-48.93,5.065,-25.904
80.376106,-44.87,7.449,-27.332
80.386913,-40.39,9.323,-25.864
80.397694,-33.32,11.241,-25.455
80.408475,-23.52,13.958,-25.544
80.419256,-13.93,17.311,-24.811
80.430037,-5.81,20.945,-22.038
80.440818,-0.35,24.437,-18.863
80.451599,3.43,26.676,-14.63
80.46238,7.42,28.294,-9.298
80.473161,10.01,28.319,-7.019
80.483942,10.64,27.743,-5.77
80.494723,8.61,27.071,-2.761
80.505504,4.41,27.453,1.926
80.516285,0.56,28.649,5.62
80.527066,0.28,28.52,11.995
80.537851,2.03,26.899,17.964
80.548636,6.09,24.593,23.386
80.559421,10.64,23.284,31.614
80.570206,15.33,22.888,40.713
80.580991,19.25,23.108,45.514
80.591776,23.66,24.867,44.403
80.602561,26.18,27.547,38.478
80.613346,25.48,30.202,30.274
80.624131,21.77,32.415,21.353
80.634916,16.1,33.427,12.789
80.645701,9.94,34.249,3.693
80.656486,4.76,33.518,-5.463
80.667272,0,32.913,-13.317
80.678058,-4.55,32.543,-20.49
80.688844,-8.68,33.198,-27.838
80.69963,-12.18,34.345,-33.536
80.710416,-14.42,36.315,-37.453
80.721202,-15.89,38.586,-40.251
80.731988,-16.59,41.38,-41.18
80.742774,-17.22,44.182,-40.544
80.75356,-17.36,47,-39.194
80.764346,-17.36,48.334,-37.893
80.775132,-17.71,49.328,-34.661
80.785918,-17.08,49.065,-29.945
80.796691,-15.05,48.377,-25.233
80.807464,-13.02,47.814,-20.428
80.818237,-9.38,47.826,-16.871
80.82901,-4.9,47.632,-14.56
80.839783,-0.98,47.746,-13.189
80.850556,2.52,47.811,-11.543
80.861329,6.16,47.953,-10.736
80.872102,10.43,48.006,-10.229
80.882875,15.96,48.095,-8.721
80.893648,21.84,47.706,-6.515
80.904421,26.67,46.705,-5.27
80.915194,28.84,45.444,-2.151
80.925967,27.72,44.419,1.648
80.936694,22.33,43.904,4.969
80.947421,15.12,44.472,5.78
80.958148,7.7,45.891,4.182
80.968875,1.82,45.408,2.889
80.979602,-3.5,44.062,2.865
80.990329,-7.56,41.698,3.372
81.001056,-12.53,38.316,4.411
81.011783,-15.26,34.484,4.375
81.02251,-17.78,29.022,1.492
81.033237,-21.91,22.189,3.557
81.043964,-25.62,17.555,9.279
81.054691,-28,14.064,7.313
81.065418,-28.49,11.975,1.827
81.076112,-24.71,11.828,-4.596
81.086806,-18.83,13.002,-14.482
81.0975,-12.32,13.869,-22.219
81.108194,-5.18,15.555,-27.75
81.118888,1.33,18.243,-30.902
81.129582,6.51,21.341,-32.346
81.140276,11.34,23.669,-31.438
81.15097,15.89,25.384,-29.074
81.161664,20.93,25.697,-24.398
81.172358,24.36,25.041,-17.051
81.183052,25.48,23.708,-8.685
81.193746,22.82,22.242,-0.769
81.204422,17.99,21.026,6.124
81.215098,13.02,19.397,11.736
81.225774,7.98,18.205,17.284
81.23645,1.61,15.493,21.781
81.247126,-4.97,12.712,25.058
81.257802,-10.29,10.263,28.465
81.268478,-15.26,7.518,30.326
81.279154,-18.55,5.037,31.097
81.28983,-20.86,1.781,32.229
81.300506,-21.56,-0.725,31.929
81.311182,-20.51,-2.96,30.895
81.321858,-19.32,-3.832,29.391
81.332496,-18.97,-3.836,26.192
81.343134,-18.13,-3.857,22.279
81.353772,-17.64,-3.623,18.126
81.36441,-17.64,-3.424,14.181
81.375048,-18.34,-3.23,10.661
81.385686,-19.53,-3.182,7.969
81.396324,-21.07,-3.551,5.629
81.406962,-21.35,-2.789,2.92
81.4176,-22.05,-1.537,-0.555
81.428238,-23.59,-0.641,-4.022
81.438876,-24.15,0.259,-6.707
81.449514,-24.85,1.669,-8.662
81.460152,-24.85,3.701,-10.507
81.470795,-24.29,6.482,-12.575
81.481438,-22.89,9.235,-12.872
81.492081,-21.91,12.459,-13.014
81.502724,-21,15.042,-13.554
81.513367,-20.37,17.771,-13.712
81.52401,-21,19.186,-12.468
81.534653,-21,19.073,-9.005
81.545296,-22.05,18.66,-5.453
81.555939,-21.91,18.961,-3.125
81.566582,-20.65,20.185,-2.411
81.577225,-18.27,21.491,-2.963
81.587868,-15.33,21.868,-2.683
81.598477,-12.81,21.041,0.796
81.609086,-10.64,19.813,5.342
81.619695,-10.85,16.959,9.032
81.630304,-10.85,14.215,15.727
81.640913,-10.29,12.723,21.364
81.651522,-9.1,10.376,23.793
81.662131,-8.05,6.861,29.215
81.67274,-7.56,3.132,37.869
81.683349,-6.65,0.124,44.447
81.693958,-5.67,-2.216,47.233
81.704567,-5.11,-4.669,47.44
81.715176,-3.22,-6.737,43.45
81.725785,-0.49,-7.841,37.214
81.736395,2.45,-9.403,30.754
81.747005,4.34,-10.609,21.87
81.757615,6.23,-12.09,11.729
81.768225,6.65,-13.499,2.382
81.778835,6.3,-14.497,-6.466
81.789445,5.53,-15.034,-14.308
81.800055,3.43,-14.642,-21.773
81.810665,0.77,-11.922,-28.331
81.821275,-1.47,-8.338,-33.74
81.831885,-3.71,-5.475,-37.074
81.842495,-5.18,-2.609,-38.417
81.853105,-7.42,-0.853,-36.685
81.863702,-9.1,-0.029,-33.697
81.874299,-10.78,0.332,-30.506
81.884896,-11.69,0.406,-26.086
81.895493,-11.69,-0.007,-21.325
81.90609,-9.45,-0.42,-16.565
81.916687,-5.32,-1.449,-12.339
81.927284,-2.45,-2.373,-7.1
81.937881,-1.05,-3.853,-3.949
81.948478,-0.28,-5.568,-1.479
81.959075,0.07,-8.061,1.777
81.969672,0.28,-10.745,3.294
81.980269,0.28,-13.43,3.603
81.990866,-0.28,-16.455,3.425
82.001485,-2.1,-19.902,2.817
82.012104,-4.2,-23.872,1.548
82.022723,-7,-27.858,-0.434
82.033342,-10.64,-31.378,-1.837
82.043961,-15.26,-34.326,-4.062
82.05458,-19.95,-36.005,-6.633
82.065199,-25.13,-35.977,-9.613
82.075818,-29.26,-34.765,-12.456
82.086437,-33.18,-33.533,-13.803
82.097056,-35.7,-31.521,-12.311
82.107675,-35.56,-29.396,-10.656
82.118294,-32.76,-27.162,-10.831
82.128936,-29.33,-26.752,-10.332
82.139578,-24.64,-26.419,-5.369
82.15022,-20.16,-25.733,-2.405
82.160862,-15.89,-24.01,-4.518
82.171504,-10.85,-22.668,-7.693
82.182146,-5.95,-19.774,-10.808
82.192788,-0.7,-15.999,-16.895
82.20343,4.62,-12.31,-24.916
82.214072,10.43,-9.757,-30.934
82.224714,15.82,-8.771,-32.893
82.235356,19.39,-9.801,-31.084
82.245998,21.91,-11.362,-27.876
82.256659,23.1,-13.178,-24.429
82.26732,23.1,-14.844,-21.027
82.277981,22.89,-16.697,-17.373
82.288642,21.49,-18.724,-12.329
82.299303,18.34,-21.286,-6.667
82.309964,15.54,-23.527,-0.808
82.320625,12.46,-26.543,5.413
82.331286,8.96,-29.259,11.545
82.341947,5.46,-32.247,17.202
82.352608,1.61,-34.375,22.015
82.363269,-2.66,-36.337,26.29
82.37393,-6.51,-37.999,29.266
82.384591,-9.31,-38.696,31.204
82.39529,-12.81,-39.13,32.052
82.405989,-16.1,-38.656,31.78
82.416688,-18.9,-37.955,30.625
82.427387,-20.65,-36.211,28.8
82.438086,-22.89,-34.216,25.953
82.448785,-24.29,-32.129,22.98
82.459484,-24.43,-29.878,19.894
82.470183,-23.66,-27.705,16.439
82.480882,-22.89,-25.93,13.624
82.491581,-22.19,-24.636,11.933
82.50228,-21.56,-23.57,9.918
82.512979,-20.86,-23.043,7.736
82.523679,-21.35,-22.545,6.118
82.534379,-21.7,-21.617,4.078
82.545079,-21.35,-20.721,1.82
82.555779,-20.86,-19.419,-0.723
82.566479,-20.16,-17.599,-3.388
82.577179,-19.25,-15.138,-5.655
82.587879,-19.67,-13.135,-6.936
82.598579,-21.14,-10.402,-6.312
82.609279,-22.75,-7.466,-5.226
82.619979,-25.2,-5.013,-5.433
82.630679,-26.46,-2.3,-5.097
82.641379,-25.83,-0.021,-3.913
82.652079,-22.26,2.181,-1.89
82.662772,-15.68,4.692,0.401
82.673465,-7.49,7.758,2.363
82.684158,2.03,9.667,2.415
82.694851,10.92,11.31,1.568
82.705544,16.87,11.646,3.688
82.716237,21.91,11.655,7.67
82.72693,25.9,11.286,10.164
82.737623,28.28,9.71,13.867
82.748316,31.57,7.78,19.568
82.759009,32.97,5.019,21.925
82.769702,33.53,1.451,23.215
82.780395,33.04,-2.449,28
82.791088,31.36,-5.551,33.495
82.801783,29.33,-8.535,35.101
82.812478,27.58,-11.244,34.339
82.823173,26.6,-13.357,31.408
82.833868,26.32,-14.4,27.243
82.844563,25.9,-14.826,21.198
82.855258,24.85,-15.37,14.207
82.865953,22.89,-15.854,8.08
82.876648,19.25,-16.641,3.676
82.887343,13.93,-17.562,0.031
82.898038,7.63,-18.207,-3.566
82.908733,1.12,-19.319,-6.534
82.919428,-4.48,-19.295,-9.089
82.930161,-8.68,-18.711,-11.189
82.940894,-10.85,-18.322,-13.395
82.951627,-12.32,-17.057,-14.523
82.96236,-13.86,-15.877,-13.959
82.973093,-14.7,-14.746,-13.12
82.983826,-15.68,-14.425,-11.713
82.994559,-16.52,-13.744,-9.531
83.005292,-16.1,-13.07,-7.707
83.016025,-15.12,-13.046,-5.428
83.026758,-13.86,-12.68,-3.871
83.037491,-11.76,-12.105,-2.703
83.048224,-10.29,-11.675,-3.125
83.058962,-8.47,-11.123,-4.236
83.0697,-6.02,-10.442,-5.68
83.080438,-4.34,-9.968,-7.16
83.091176,-2.59,-9.863,-8.563
83.101914,-1.68,-9.737,-9.678
83.112652,-1.05,-9.571,-10.217
83.12339,-1.54,-10.281,-11.835
83.134128,-3.36,-10.654,-11.332
83.144866,-6.51,-11.514,-10.489
83.155604,-11.06,-12.191,-10.679
83.166342,-14,-12.313,-11.198
83.17708,-16.66,-12.004,-10.931
83.187818,-18.55,-11.36,-10.959
83.198571,-19.32,-10.585,-11.32
83.209324,-20.23,-9.381,-10.894
83.220077,-20.16,-8.168,-10.112
83.23083,-18.69,-7.998,-11.077
83.241583,-19.46,-9.279,-10.663
83.252336,-18.55,-10.365,-6.519
83.263089,-17.15,-10.982,-5.846
83.273842,-15.12,-10.54,-8.753
83.284595,-10.08,-8.501,-13.867
83.295348,-4.13,-5.879,-21.081
83.306101,2.1,-2.826,-28.717
83.316854,9.24,-0.078,-37.046
83.327598,15.05,2.159,-44.897
83.338342,20.37,3.302,-50.169
83.349086,23.45,3.675,-53.088
83.35983,25.48,2.559,-53.214
83.370574,25.76,0.804,-51.32
83.381318,25.06,-1.6,-46.555
83.392062,23.17,-4.312,-40.849
83.402806,21.07,-6.655,-34.012
83.41355,18.48,-9.196,-26.855
83.424294,15.05,-11.036,-19.645
83.435038,10.99,-12.726,-12.479
83.445782,6.79,-14.287,-5.647
83.456526,2.24,-16.564,1.628
83.467282,-1.54,-18.696,9.284
83.478038,-4.76,-20.325,16.105
83.488794,-8.61,-21.744,22.537
83.49955,-11.83,-23.324,27.873
83.510306,-14.35,-24.24,32.261
83.521062,-16.66,-24.905,35.627
83.531818,-18.27,-25.266,37.269
83.542574,-19.32,-24.767,36.859
83.55333,-20.23,-23.765,35.614
83.564086,-20.65,-22.987,33.619
83.574842,-21,-22.314,31.819
83.585598,-21.35,-21.418,29.56
83.596324,-21.42,-20.656,26.851
83.60705,-21.35,-19.753,23.741
83.617776,-21.14,-18.654,20.736
83.628502,-19.95,-17.26,16.859
83.639228,-18.48,-15.691,12.8
83.649954,-16.31,-14.114,7.889
83.66068,-14.35,-12.323,3.371
83.671406,-11.76,-10.778,-0.55
83.682132,-8.4,-9.067,-3.802
83.692858,-5.32,-8.115,-5.98
83.703584,-2.38,-7.389,-6.065
83.71431,-0.7,-7.174,-4.464
83.725036,-0.07,-6.951,-2.505
83.735734,0.28,-6.719,-1.398
83.746432,0.7,-6.383,-0.486
83.75713,2.17,-5.754,1.189
83.767828,4.2,-5.527,2.722
83.778526,6.51,-5.028,4.729
83.789224,9.59,-4.634,6.931
83.799922,12.25,-3.944,9.469
83.81062,17.01,-2.853,10.941
83.821318,19.81,-2.781,8.11
83.832016,19.11,-2.655,8.204
83.842714,17.22,-1.957,12.307
83.853412,11.62,-0.988,12.052
83.864092,3.78,-0.153,11.346
83.874772,-4.2,0.095,13.167
83.885452,-11.48,-0.561,16.889
83.896132,-15.26,-1.802,20.295
83.906812,-15.47,-3.601,24.456
83.917492,-14.91,-5.49,29.525
83.928172,-13.58,-6.447,34.545
83.938852,-11.83,-6.665,36.995
83.949532,-8.82,-5.847,34.367
83.960212,-5.53,-4.164,29.261
83.970892,-2.38,-2.223,22.282
83.981572,0.07,-0.01,14.57
83.992257,1.82,1.286,7.619
84.002942,2.66,1.355,1.589
84.013627,2.73,1.025,-3.8
84.024312,3.01,0.575,-8.499
84.034997,1.61,0.116,-12.347
84.045682,-0.35,-0.679,-15.9
84.056367,-2.66,-0.854,-19.342
84.067052,-4.97,-0.526,-22.412
84.077737,-6.79,-0.194,-24.699
84.088422,-7.91,0.706,-26.175
84.099107,-9.1,1.347,-26.986
84.109792,-9.59,2.048,-25.725
84.120499,-9.59,2.641,-23.844
84.131206,-9.31,3.127,-21.768
84.141913,-8.68,3.765,-18.528
84.15262,-7.14,4.657,-15.527
84.163327,-5.46,5.821,-13.261
84.174034,-3.22,6.896,-11.294
84.184741,-0.98,8.595,-9.644
84.195448,1.54,10.116,-8.594
84.206155,3.71,11.552,-8.27
84.216862,5.74,12.427,-8.4
84.227569,7.28,13.636,-8.4
84.238276,9.59,14.601,-9.438
84.248958,12.04,14.755,-9.908
84.25964,14.07,14.523,-11.015
84.270322,14.49,13.907,-11.551
84.281004,14,13.1,-11.409
84.291686,12.25,12.703,-11.976
84.302368,10.01,11.863,-13.261
84.31305,7.77,10.849,-14.364
84.323732,6.58,10.346,-14.737
84.334414,5.88,8.505,-14.778
84.345096,7,7.208,-13.869
84.355778,10.64,6.584,-12.344
84.36646,16.87,5.043,-11.265
84.377142,24.29,1.856,-8.913
84.387827,30.24,-1.878,-2.25
84.398512,36.54,-5.83,5.653
84.409197,41.02,-9.374,8.014
84.419882,43.61,-10.741,6.494
84.430567,45.92,-9.342,2.191
84.441252,47.88,-7.134,-6.305
84.451937,51.59,-4.049,-16.138
84.462622,55.86,-0.684,-22.724
84.473307,59.92,3.171,-28.868
84.483992,63,6.561,-31.966
84.494677,66.01,9.898,-31.947
84.505362,67.69,12.627,-29.688
84.516059,67.13,14.769,-24.904
84.526756,64.12,15.909,-17.666
84.537453,60.06,16.231,-10.217
84.54815,53.83,16.722,-3.733
84.558847,46.48,16.707,1.595
84.569544,39.2,16.351,6.437
84.580241,31.92,15.439,10.399
84.590938,25.27,14.393,13.911
84.601635,18.34,11.815,17.65
84.612332,11.83,9.301,21.827
84.623029,6.23,6.118,24.962
84.633726,0.56,2.7,27.415
84.644411,-4.76,-1.192,28.933
84.655096,-9.38,-4.517,30.052
84.665781,-13.65,-6.634,28.755
84.676466,-16.59,-8.621,27.125
84.687151,-19.25,-10.483,25.588
84.697836,-20.65,-12.239,23.857
84.708521,-21.91,-13.358,21.741
84.719206,-22.19,-14.311,20.293
84.729891,-21.98,-15.127,18.87
84.740576,-22.96,-15.163,17.868
84.751261,-25.27,-15.366,17.406
84.761946,-30.38,-15.07,16.534
84.772631,-36.33,-14.604,15.906
84.783337,-42.91,-13.108,14.677
84.794043,-48.72,-11.149,13.245
84.804749,-53.34,-8.048,11.375
84.815455,-56.91,-3.831,9.631
84.826161,-60.34,0.382,8.313
84.836867,-64.12,4.656,6.65
84.847573,-68.18,8.78,7.448
84.858279,-71.47,13.042,7.062
84.868985,-73.29,16.46,7.025
84.879691,-73.92,19.615,8.079
84.890397,-73.43,22.077,10.645
84.901103,-71.26,23.813,13.297
84.911787,-67.41,24.924,16.265
84.922471,-62.65,26.214,19.833
84.933155,-56.98,27.841,23.106
84.943839,-50.12,28.554,21.881
84.954523,-46.13,28.404,20.717
84.965207,-44.17,27.082,22.972
84.975891,-45.15,24.633,23.962
84.986575,-47.6,22.204,22.822
84.997259,-51.52,18.968,21.825
85.007943,-51.17,15.854,23.764
85.018627,-48.16,12.87,22.954
85.029311,-44.52,8.62,20.854
85.039995,-40.88,4.103,22.687
85.050688,-38.71,0.247,26.414
85.061381,-36.68,-3.127,27.81
85.072074,-34.93,-4.433,24.736
85.082767,-32.69,-4.551,20.166
85.09346,-30.17,-3.83,15.673
85.104153,-28.49,-2.675,10.332
85.114846,-27.44,-1.67,5.037
85.125539,-26.6,-0.596,-0.247
85.136232,-26.04,0.364,-5.693
85.146925,-25.27,1.337,-10
85.157618,-24.78,2.277,-13.317
85.168311,-25.34,3.392,-16.817
85.178993,-25.62,4.904,-19.748
85.189675,-25.55,6.671,-22.92
85.200357,-24.78,9.882,-26.618
85.211039,-23.59,13.073,-29.396
85.221721,-21.91,16.216,-30.69
85.232403,-20.09,18.924,-31.137
85.243085,-17.57,20.644,-30.407
85.253767,-15.12,21.877,-28.128
85.264449,-12.74,21.926,-24.779
85.275131,-10.15,21.095,-20.874
85.285813,-7,20.07,-17.074
85.296495,-4.13,18.951,-14.357
85.307177,-2.38,18.217,-12.212
85.317846,-2.38,18.201,-10.509
85.328515,-4.13,17.922,-10.132
85.339184,-6.51,17.038,-10.359
85.349853,-9.31,16.206,-10.079
85.360522,-11.27,15.217,-10.111
85.371191,-13.16,13.457,-10.208
85.38186,-15.82,11.608,-10.605
85.392529,-20.37,9.71,-10.727
85.403198,-24.64,7.346,-11.428
85.413867,-28.7,5.225,-12.3
85.424536,-32.55,3.125,-12.883
85.435205,-34.72,0.748,-13.515
85.445874,-34.93,-1.924,-13.276
85.456543,-34.51,-5.058,-12.833
85.467196,-33.67,-8.549,-11.174
85.477849,-33.95,-10.905,-9.102
85.488502,-32.2,-13.018,-8.408
85.499155,-29.19,-15.913,-10.127
85.509808,-27.44,-19.745,-8.955
85.520461,-26.04,-23.361,-3.764
85.531114,-23.59,-26.735,-1.16
85.541767,-20.65,-29.545,-2.153
85.55242,-17.36,-30.527,-4.245
85.563073,-14.07,-29.745,-9.083
85.573726,-9.87,-27.742,-16.407
85.584371,-6.72,-25.931,-24.261
85.595016,-3.99,-24.277,-30.012
85.605661,-2.03,-23.065,-31.646
85.616306,-0.28,-22.501,-31.618
85.626951,1.05,-22.939,-30.344
85.637596,2.87,-23.097,-27.031
85.648241,5.18,-23.319,-22.948
85.658886,6.37,-23.351,-18.333
85.669531,6.65,-23.78,-11.87
85.680176,5.81,-25.012,-4.481
85.690821,3.99,-25.218,2.733
85.701466,1.61,-25.529,8.933
85.712111,-1.54,-25.723,14.869
85.722786,-4.48,-25.661,20.566
85.733461,-7.91,-25.373,25.38
85.744136,-10.36,-24.865,28.952
85.754811,-12.81,-24.423,30.878
85.765486,-14.77,-23.133,32.03
85.776161,-16.38,-21.621,31.514
85.786836,-18.06,-19.504,29.186
85.797511,-19.39,-16.78,25.829
85.808186,-20.58,-13.557,22.061
85.818861,-21.77,-9.973,17.86
85.829536,-22.47,-6.255,14.108
85.840211,-22.82,-3.267,10.868
85.850923,-23.03,-1.045,9.554
85.861635,-23.73,1.279,8.471
85.872347,-24.22,3.549,6.881
85.883059,-24.57,5.731,6.199
85.893771,-25.2,8.411,5.108
85.904483,-25.62,11.359,3.709
85.915195,-26.39,14.801,2.326
85.925907,-25.9,18.154,0.642
85.936619,-25.48,22.27,-1.333
85.947331,-24.29,26.414,-3.872
85.958043,-23.66,30.606,-5.479
85.968755,-23.24,34.268,-4.477
85.97946,-23.94,38.891,-4.089
85.990165,-24.92,44.203,-4.787
86.00087,-24.92,50.233,-4.719
86.011575,-23.52,57.179,-4.205
86.02228,-20.3,63.712,-2.555
86.032985,-16.59,69.835,2.221
86.04369,-13.51,76.466,8.152
86.054395,-9.8,84.739,12.027
86.0651,-8.47,93.42,10.36
86.075805,-8.12,103.387,10.269
86.08651,-8.33,111.814,11.257
86.097215,-9.73,118.419,10.076
86.10792,-11.97,123.508,8.628
86.118627,-13.3,127.746,12.005
86.129334,-11.62,130.679,17.143
86.140041,-9.31,131.672,17.957
86.150748,-7.14,130.452,19.235
86.161455,-3.99,127.862,26.668
86.172162,-2.45,125.012,35.975
86.182869,-0.07,122.531,40.371
86.193576,2.73,120.941,38.1
86.204283,5.25,119.814,34.418
86.21499,7.07,119.099,29.601
86.225697,8.4,117.205,23.012
86.236404,9.17,113.7,16.281
86.247135,9.52,108.481,10.812
86.257866,8.47,101.927,6.458
86.268597,6.51,93.813,2.894
86.279328,3.85,84.916,0.544
86.290059,1.61,75.844,-2.833
86.30079,-0.84,67.389,-5.674
86.311521,-3.01,59.254,-8.317
86.322252,-4.13,52.065,-9.869
86.332983,-5.11,44.891,-10.707
86.343714,-5.46,38.59,-10.041
86.354445,-5.74,32.471,-9.201
86.365176,-5.74,27.398,-8.248
86.375914,-6.02,22.281,-7.444
86.386652,-6.3,17.16,-6.215
86.39739,-6.51,12.002,-4.778
86.408128,-6.58,7.047,-2.88
86.418866,-5.74,2.364,-1.716
86.429604,-4.13,-1.302,-1.083
86.440342,-2.8,-4.814,-2.128
86.45108,-1.82,-8.483,-2.278
86.461818,-0.84,-11.561,-2.963
86.472556,-0.35,-14.757,-4.592
86.483294,0.49,-18.257,-6.915
86.494032,1.47,-21.768,-7.961
86.50477,2.03,-26.055,-9.854
86.51553,1.47,-31.314,-12.274
86.52629,-0.84,-36.781,-14.731
86.53705,-2.17,-42.653,-16.903
86.54781,-3.08,-47.9,-20.601
86.55857,-2.45,-52.053,-24.461
86.56933,-2.17,-57.07,-28.259
86.58009,-2.38,-63.371,-28.802
86.59085,-2.73,-69.563,-27.548
86.60161,-2.8,-74.77,-27.044
86.61237,-2.66,-81.152,-26.322
86.62313,-5.88,-88.507,-22.501
86.63389,-9.8,-94.228,-13.843
86.644628,-12.6,-98.651,-9.718
86.655366,-15.12,-101.368,-9.629
86.666104,-14.84,-102.382,-8.315
86.676842,-12.74,-101.806,-8.355
86.68758,-8.33,-100.188,-11.482
86.698318,-2.31,-97.869,-15.764
86.709056,4.2,-95.242,-18.571
86.719794,10.01,-93.089,-21.105
86.730532,13.86,-91.277,-21.71
86.74127,16.17,-88.333,-21.475
86.752008,16.31,-84.193,-21.172
86.762746,15.75,-79.955,-20.211
86.773484,14.63,-75.778,-18.906
86.784235,12.81,-71.297,-16.907
86.794986,11.97,-67.124,-13.968
86.805737,10.43,-63.608,-10.932
86.816488,8.54,-60.696,-7.291
86.827239,6.51,-58.733,-3.106
86.83799,3.78,-56.818,1.354
86.848741,0.84,-55.171,6.123
86.859492,-2.8,-53.354,9.926
86.870243,-6.72,-51.083,13.17
86.880994,-9.59,-49.128,15.789
86.891745,-11.9,-47.112,18.063
86.902496,-13.86,-45.073,18.992
86.913247,-15.19,-42.83,19.174
86.923998,-15.96,-40.576,18.079
86.934745,-16.38,-38.504,16.809
86.945492,-16.17,-36.894,15.743
86.956239,-15.82,-36.104,14.887
86.966986,-15.47,-35.333,13.743
86.977733,-15.33,-34.616,12.093
86.98848,-15.33,-34.044,11.27
86.999227,-15.75,-33.087,9.874
87.009974,-16.87,-32.552,8.05
87.020721,-17.57,-32.224,6.188
87.031468,-19.11,-31.807,4.627
87.042215,-21.56,-30.992,2.425
87.052962,-23.17,-30.129,-0.053
87.063703,-25.34,-28.957,-3.471
87.074444,-28.07,-27.4,-6.253
87.085185,-30.52,-25.848,-7.401
87.095926,-33.67,-24.408,-8.711
87.106667,-35.56,-23.309,-9.299
87.117408,-37.03,-23.038,-8.825
87.128149,-36.61,-22.997,-7.04
87.13889,-34.72,-23.592,-3.662
87.149631,-32.06,-23.706,-0.199
87.160372,-28.77,-23.344,2.992
87.171113,-23.45,-22.48,5.348
87.181854,-16.87,-22.042,6.491
87.192595,-10.22,-21.912,6.159
87.203315,-6.23,-22.934,8.324
87.214035,-2.73,-23.432,14.776
87.224755,-1.68,-23.776,18.34
87.235475,-0.28,-24.408,21.925
87.246195,1.89,-25.616,26.758
87.256915,4.41,-27.46,30.769
87.267635,6.79,-29.406,34.549
87.278355,8.61,-31.871,39.658
87.289075,10.08,-33.739,46.223
87.299795,11.41,-35.267,49.65
87.310515,12.11,-36.496,49.362
87.321235,12.46,-36.703,46.909
87.331922,12.04,-35.844,42.44
87.342609,10.92,-33.692,35.072
87.353296,9.24,-31.447,26.37
87.363983,7.21,-29.599,17.1
87.37467,3.92,-28.124,8.333
87.385357,-1.26,-27.363,1.999
87.396044,-7,-26.918,-3.751
87.406731,-11.55,-25.99,-9.416
87.417418,-14.63,-25.058,-14.298
87.428105,-17.36,-24.466,-18.459
87.438792,-19.74,-23.477,-20.843
87.449479,-21,-22.415,-22.433
87.460166,-21.21,-20.968,-23.386
87.470867,-21.77,-19.67,-23.086
87.481568,-21.63,-17.898,-21.85
87.492269,-21.42,-16.312,-20.362
87.50297,-21.56,-14.41,-18.25
87.513671,-22.19,-12.565,-17.427
87.524372,-23.24,-9.986,-17.541
87.535073,-25.34,-7.598,-18.186
87.545774,-27.09,-5.607,-19.398
87.556475,-29.33,-3.924,-22.087
87.567176,-31.15,-2.862,-24.885
87.577877,-33.18,-2.396,-27.93
87.588578,-35.7,-2.295,-30.116
87.599282,-39.27,-3.025,-30.813
87.609986,-41.58,-4.696,-30.61
87.62069,-44.45,-6.293,-29.613
87.631394,-47.74,-8.459,-28.218
87.642098,-51.31,-10.214,-26.324
87.652802,-55.44,-11.88,-24.13
87.663506,-59.43,-13.166,-22.082
87.67421,-61.6,-14.256,-21.137
87.684914,-61.88,-14.787,-20.946
87.695618,-59.85,-14.195,-20.273
87.706322,-56.21,-13.262,-19.113
87.717026,-51.45,-11.373,-16.932
87.727716,-47.04,-11.214,-12.995
87.738406,-43.26,-13.302,-10.022
87.749096,-40.04,-15.588,-4.312
87.759786,-35.84,-16.536,3.481
87.770476,-31.08,-16.434,6.129
87.781166,-26.11,-15.729,3.339
87.791856,-18.06,-13.179,-1.044
87.802546,-8.82,-10.013,-7.31
87.813236,0.77,-6.599,-14.171
87.823926,9.31,-3.64,-20.473
87.834616,15.89,-2.408,-25.445
87.845306,21.07,-1.699,-28.66
87.855996,25.13,-0.58,-28.961
87.866691,27.65,0.235,-28.746
87.877386,29.68,1.058,-28.174
87.888081,31.5,2.356,-27.874
87.898776,33.6,3.617,-27.368
87.909471,34.79,4.842,-25.446
87.920166,34.93,6.493,-23.52
87.930861,34.79,8.496,-21.176
87.941556,33.53,10.411,-16.716
87.952251,31.85,12.496,-10.804
87.962946,29.33,13.754,-3.83
87.973641,26.81,15.263,3.331
87.984336,24.22,17.235,10.289
87.99503,23.24,19.835,16.505
88.005724,22.12,22.476,20.88
88.016418,20.79,25.25,24.497
88.027112,19.39,27.675,27.27
88.037806,18.06,30.141,29.411
88.0485,16.1,32.128,31.041
88.059194,14.14,34.066,31.738
88.069888,11.76,35.194,31.794
88.080582,9.31,35.583,32.005
88.091276,7.49,34.715,32.492
88.10197,5.04,32.911,32.245
88.112664,1.96,30.53,32.038
88.123368,-1.19,27.582,32.229
88.134072,-4.06,24.46,31.394
88.144776,-6.93,20.673,30.3
88.15548,-9.1,17.294,28.496
88.166184,-10.57,14.233,26.108
88.176888,-11.97,11.073,23.063
88.187592,-12.53,8.851,19.544
88.198296,-13.72,6.381,15.412
88.209,-14.98,4.02,11.868
88.219704,-17.22,1.299,9.967
88.230408,-19.53,-0.757,8.325
88.241112,-21.77,-3.15,5.771
88.251799,-24.57,-6.11,3.614
88.262486,-27.09,-8.604,3.245
88.273173,-28.07,-10.376,3.217
88.28386,-28.91,-10.713,2.305
88.294547,-28.77,-9.906,2.163
88.305234,-27.09,-8.722,2.3
88.315921,-24.92,-7.181,1.222
88.326608,-22.75,-5.778,0.118
88.337295,-20.44,-4.955,1.898
88.347982,-18.69,-3.73,5.029
88.358669,-16.1,-2.424,8.102
88.369356,-11.97,-0.769,10.811
88.380043,-7.77,0.476,13.021
88.390697,-3.99,0.797,15.636
88.401351,-0.42,0.311,19.602
88.412005,3.08,-0.848,24.16
88.422659,4.48,-3.216,28.718
88.433313,4.76,-5.255,32.623
88.443967,4.13,-6.139,32.396
88.454621,2.66,-7.173,28.589
88.465275,1.89,-7.535,22.981
88.475929,1.12,-7.881,16.878
88.486583,0.21,-8.579,10.358
88.497237,-1.19,-10.356,4.713
88.507891,-2.87,-13.608,0.586
88.518547,-3.99,-17.052,-2.865
88.529203,-5.88,-20.527,-6.534
88.539859,-7.56,-23.095,-10.114
88.550515,-9.24,-24.705,-12.672
88.561171,-10.57,-25.618,-15.961
88.571827,-11.97,-25.444,-19.769
88.582483,-12.88,-24.67,-22.546
88.593139,-13.58,-23.101,-24.189
88.603795,-13.58,-22.2,-24.457
88.614451,-14.14,-21.243,-23.435
88.625107,-14.28,-21.056,-21.27
88.635763,-14.35,-21.689,-17.685
88.646413,-14.77,-22.199,-13.581
88.657063,-15.19,-22.223,-11.026
88.667713,-15.33,-21.61,-8.857
88.678363,-14.84,-21.124,-7.989
88.689013,-14.28,-19.952,-7.783
88.699663,-13.16,-18.97,-8.107
88.710313,-12.11,-17.592,-9.073
88.720963,-10.29,-15.812,-9.896
88.731613,-8.33,-14.068,-10.513
88.742263,-7.28,-12.219,-10.116
88.752913,-6.16,-10.662,-9.272
88.763563,-7.42,-9.522,-9.285
88.774213,-9.1,-8.484,-8.32
88.784837,-11.62,-7.884,-8.498
88.795461,-14.21,-7.685,-7.61
88.806085,-18.13,-8.318,-6.442
88.816709,-21.91,-9.173,-4.816
88.827333,-25.48,-9.477,-5.509
88.837957,-28.28,-9.108,-6.795
88.848581,-31.5,-8.885,-6.045
88.859205,-34.58,-8.451,-4.476
88.869829,-36.4,-9.465,-1.953
88.880453,-36.12,-12.631,0.687
88.891077,-36.47,-16.122,3.554
88.901701,-37.24,-18.052,8.048
88.912319,-38.01,-18.794,9.836
88.922937,-38.5,-18.421,5.708
88.933555,-37.03,-15.486,-1.664
88.944173,-32.83,-11.343,-10.245
88.954791,-26.81,-7.022,-19.435
88.965409,-20.79,-3.994,-28.141
88.976027,-13.93,-1.919,-35.878
88.986645,-7.21,0.002,-41.937
88.997263,-1.47,1.405,-46.665
89.007881,3.99,2.402,-49.901
89.018499,8.47,3.139,-52.472
89.029117,12.95,2.616,-53.133
89.039753,17.36,1.842,-51.564
89.050389,20.72,1.108,-48.21
89.061025,23.52,-0.124,-43.238
89.071661,25.13,-1.368,-36.989
89.082297,25.76,-2.417,-30.635
89.092933,25.76,-3.093,-23.575
89.103569,24.85,-3.887,-16.252
89.114205,22.54,-4.62,-9.273
89.124841,19.32,-5.065,-2.315
89.135477,15.61,-6.139,4.177
89.146113,12.39,-6.418,9.388
89.156749,9.17,-6.397,13.301
89.167412,5.46,-7.155,16.793
89.178075,1.47,-7.657,18.836
89.188738,-2.03,-7.977,19.846
89.199401,-5.11,-8.034,19.765
89.210064,-7.98,-8.111,19.396
89.220727,-10.71,-7.686,18.192
89.23139,-13.65,-7.686,16.983
89.242053,-16.8,-7.629,15.856
89.252716,-19.32,-7.601,14.084
89.263379,-21.84,-7.334,12.567
89.274042,-24.57,-7.257,10.52
89.284705,-26.53,-6.949,8.37
89.29536,-29.05,-6.536,6.027
89.306015,-30.94,-5.871,3.869
89.31667,-32.13,-5.308,1.481
89.327325,-32.62,-4.035,-0.498
89.33798,-33.04,-3.082,-2.676
89.348635,-34.23,-2,-3.978
89.35929,-35.98,-1.051,-4.521
89.369945,-37.87,-0.143,-4.432
89.3806,-39.48,0.316,-4.209
89.391255,-39.34,1.05,-2.729
89.40191,-37.31,2.396,-2.705
89.412565,-32.2,3.759,-3.176
89.42322,-25.69,5.644,-1.777
89.433912,-18.83,7.19,1.552
89.444604,-11.62,8.476,5.546
89.455296,-5.95,8.431,7.813
89.465988,-1.82,9.065,11.478
89.47668,1.54,9.519,15.752
89.487372,4.27,10.537,17.638
89.498064,7.35,12.018,19.32
89.508756,11.13,14.39,22.795
89.519448,16.31,14.731,26.907
89.53014,21.35,14.063,29.49
89.540832,26.81,13.13,30.747
89.551524,32.06,12.531,34.551
89.562253,35.56,12.511,39.096
89.572982,38.08,12.819,39.364
89.583711,40.18,13.467,35.285
89.59444,42,14.975,30.362
89.605169,43.89,16.848,24.579
89.615898,44.52,18.708,17.657
89.626627,44.52,19.782,11.165
89.637356,44.03,19.757,5.261
89.648085,42.84,19.115,0.03
89.658814,40.74,17.951,-4.654
89.669543,36.54,16.32,-8.708
89.680272,29.54,14.645,-11.705
89.691003,20.65,13.513,-14.961
89.701734,9.66,13.018,-18.602
89.712465,-1.75,12.701,-21.643
89.723196,-12.53,12.137,-24.088
89.733927,-21.63,12.096,-25.873
89.744658,-28.84,12.121,-26.01
89.755389,-34.02,11.857,-24.92
89.76612,-37.8,11.476,-23.565
89.776851,-40.04,11.181,-21.485
89.787582,-41.16,11.035,-19.449
89.798313,-41.93,10.934,-18.472
89.809044,-41.72,10.893,-17.839
89.819775,-39.62,11.348,-17.191
89.830505,-37.24,11.437,-16.891
89.841235,-33.67,11.684,-17.487
89.851965,-29.12,11.806,-18.176
89.862695,-23.94,11.911,-18.371
89.873425,-18.13,11.789,-17.681
89.884155,-13.02,10.832,-17.495
89.894885,-8.54,9.304,-16.485
89.905615,-4.27,7.946,-15.232
89.916345,-1.33,7.248,-14.502
89.927075,-0.49,6.401,-14.935
89.937805,0.35,5.209,-15.43
89.948535,1.26,4.539,-16.472
89.959265,1.82,4.352,-18.637
89.969995,2.66,4.458,-20.04
89.980725,3.15,5.009,-21.152
89.991478,3.15,5.066,-21.07
90.002231,3.43,4.364,-19.915
90.012984,1.96,3.176,-19.627
90.023737,0.49,1.162,-14.651
90.03449,-1.05,-0.398,-6.61
90.045243,-3.15,-1.639,-5.62
90.055996,-3.01,-1.238,-9.103
90.066749,-2.52,0.651,-12.964
90.077502,-2.66,3.022,-19.156
90.088255,-2.8,5.876,-26.472
90.099008,-1.75,8.799,-34.984
90.109744,-0.84,10.61,-41.63
90.12048,0.84,11.68,-45.28
90.131216,2.66,11.449,-46.387
90.141952,4.9,10.289,-45.454
90.152688,7,9.15,-43.025
90.163424,8.4,8.417,-39.671
90.17416,10.01,7.651,-36.537
90.184896,11.34,6.658,-32.518
90.195632,11.9,5.657,-27.648
90.206368,11.55,4.178,-22.08
90.217104,9.73,3.497,-15.803
90.22784,7.42,1.982,-8.82
90.238576,4.48,0.134,-0.758
90.249288,0.7,-1.893,6.703
90.26,-3.08,-3.368,13.053
90.270712,-6.72,-4.531,19.246
90.281424,-9.8,-4.997,23.499
90.292136,-12.81,-5.479,27.039
90.302848,-15.47,-5.843,30.316
90.31356,-17.29,-5.908,32.295
90.324272,-18.62,-5.478,33.081
90.334984,-19.53,-5.547,33.069
90.345696,-19.81,-5.94,33.284
90.356408,-20.37,-6.175,32.603
90.36712,-21.42,-6.873,32.125
90.377832,-22.19,-7.789,31.679
90.388549,-23.1,-8.872,30.564
90.399266,-24.15,-9.971,28.735
90.409983,-24.85,-11.014,26.987
90.4207,-25.76,-12.19,24.79
90.431417,-26.11,-12.92,21.676
90.442134,-26.53,-12.795,18.144
90.452851,-26.67,-12.633,14.405
90.463568,-27.09,-12.411,10.322
90.474285,-27.23,-11.998,6.769
90.485002,-27.37,-11.244,4.912
90.495719,-27.93,-10.113,3.335
90.506448,-27.93,-8.978,1.331
90.517177,-27.37,-7.64,-0.21
90.527906,-26.11,-6.006,-1.414
90.538635,-24.92,-4.059,-1.569
90.549364,-23.03,-2.202,-0.815
90.560093,-20.93,-0.369,1.285
90.570822,-17.08,0.949,4.29
90.581551,-13.16,1.789,5.575
90.59228,-8.61,2.049,6.119
90.603009,-4.55,1.506,10.003
90.613738,-0.21,0.4,16.277
90.624467,3.78,-0.098,21.52
90.635168,7.14,0.06,25.457
90.645869,10.43,-0.02,30.348
90.65657,13.09,-1.329,33.742
90.667271,16.24,-2.448,35.25
90.677972,19.95,-3.948,38.113
90.688673,22.89,-5.703,43.632
90.699374,24.36,-7.779,48.953
90.710075,25.06,-9.044,50.08
90.720776,25.76,-8.951,47.538
90.731477,26.53,-8.27,43.677
90.742178,26.74,-7.529,38.264
90.752879,25.41,-6.403,31.07
90.76358,22.82,-5.637,23.102
90.77426,19.32,-5.667,15.207
90.78494,14.28,-6.179,8.435
90.79562,8.61,-7.132,2.154
90.8063,2.94,-8.273,-3.875
90.81698,-2.52,-9.656,-9.735
90.82766,-6.72,-9.913,-15.537
90.83834,-10.78,-8.948,-21.409
90.84902,-14.28,-8.304,-26.271
90.8597,-17.08,-7.027,-29.884
90.87038,-19.67,-5.227,-32.837
90.88106,-21.14,-3.439,-34.512
90.89174,-23.45,-2.089,-34.913
90.902434,-24.71,-1.168,-33.685
90.913128,-25.55,-0.495,-31.86
90.923822,-26.18,0.673,-30.019
90.934516,-26.18,2.036,-28.073
90.94521,-25.76,3.771,-26.63
90.955904,-24.78,5.317,-24.509
90.966598,-23.59,7.044,-23.423
90.977292,-22.4,8.93,-23.232
90.987986,-20.58,10.718,-22.49
90.99868,-18.55,12.255,-21.935
91.009374,-17.08,13.326,-20.751
91.020068,-16.38,14.088,-19.835
91.030737,-15.96,14.612,-19.174
91.041406,-16.66,14.774,-19.288
91.052075,-18.9,14.449,-19.06
91.062744,-22.68,14.218,-18.959
91.073413,-27.3,13.46,-20.301
91.084082,-32.41,12.43,-22.118
91.094751,-36.68,10.544,-23.516
91.10542,-40.18,8.82,-25.029
91.116089,-42.49,7.62,-25.88
91.126758,-43.26,6.513,-26.857
91.137427,-42.56,5.47,-27.396
91.148096,-39.83,4.116,-28.986
91.158765,-36.4,0.977,-28.117
91.169431,-32.41,-3.58,-22.026
91.180097,-28.56,-7.597,-15.769
91.190763,-24.08,-10.715,-13.404
91.201429,-18.13,-11.632,-15.059
91.212095,-10.85,-10.728,-20.586
91.222761,-3.57,-7.988,-28.063
91.233427,4.34,-5.106,-35.943
91.244093,11.62,-3.197,-43.141
91.254759,17.22,-3.417,-46.733
91.265425,21.14,-4.143,-46.648
91.276091,23.45,-5.639,-44.211
91.286757,24.99,-7.771,-40.18
91.297438,25.97,-9.522,-35.087
91.308119,25.41,-11.962,-28.906
91.3188,23.59,-13.49,-21.855
91.329481,21.77,-15.76,-14.223
91.340162,18.34,-17.981,-6.867
91.350843,14.84,-19.894,0.757
91.361524,11.34,-21.401,8.097
91.372205,7.35,-23.075,14.767
91.382886,2.66,-24.497,20.416
91.393567,-2.24,-25.377,25.805
91.404248,-6.44,-26.799,30.246
91.414929,-10.5,-27.099,33.96
91.42561,-13.58,-27.585,36.718
91.436301,-15.89,-27.913,38.579
91.446992,-17.99,-28.185,39.313
91.457683,-19.32,-27.69,39.329
91.468374,-20.51,-27.005,38.668
91.479065,-20.65,-26.445,37.914
91.489756,-20.58,-25.716,36.194
91.500447,-21.7,-25.047,34.82
91.511138,-22.26,-24.654,33.396
91.521829,-23.45,-24.257,31.547
91.53252,-25.48,-23.673,29.447
91.543211,-27.09,-22.806,26.543
91.553902,-28.77,-22.174,22.958
91.564582,-30.45,-21.424,19.11
91.575262,-32.27,-20.682,14.905
91.585942,-33.88,-19.552,10.911
91.596622,-35.84,-18.303,6.653
91.607302,-37.8,-17.846,2.042
91.617982,-39.34,-17.789,-1.502
91.628662,-40.95,-18.057,-3.61
91.639342,-42.63,-18.885,-4.965
91.650022,-44.1,-20.045,-6.449
91.660702,-45.5,-21.245,-7.3
91.671382,-45.36,-23.017,-7.328
91.682062,-44.45,-24.639,-6.193
91.692742,-41.23,-25.381,-4.404
91.703417,-36.68,-25.721,-2.474
91.714092,-30.66,-24.89,-0.337
91.724767,-23.59,-23.434,0.275
91.735442,-17.5,-21.548,-0.743
91.746117,-13.16,-18.981,1.629
91.756792,-10.01,-16.455,4.633
91.767467,-7.56,-13.587,5.707
91.778142,-4.62,-10.984,6.664
91.788817,-0.63,-7.679,11.298
91.799492,4.06,-5.322,17.685
91.810167,9.03,-4.676,22.49
91.820842,14.35,-5.028,26.906
91.831533,19.11,-6.187,32.672
91.842224,22.75,-7.573,39.322
91.852915,24.92,-8.513,45.056
91.863606,26.18,-9.178,47.214
91.874297,26.74,-9.515,47.51
91.884988,27.58,-9.328,46.05
91.895679,28,-8.814,42.729
91.90637,28.28,-8.445,39.026
91.917061,28.7,-8.742,35.065
91.927752,28.84,-9.257,31.136
91.938443,28,-10.272,27.616
91.949134,26.32,-11.217,24.108
91.959827,24.43,-11.566,19.64
91.97052,21.07,-10.93,14.421
91.981213,16.17,-10.266,8.639
91.991906,9.87,-7.959,3.217
92.002599,3.01,-5.738,-1.723
92.013292,-4.2,-3.35,-5.993
92.023985,-10.85,-0.642,-8.856
92.034678,-16.8,2.492,-10.507
92.045371,-22.82,5.959,-12.028
92.056064,-28.35,9.584,-13.237
92.066757,-32.9,12.852,-13.229
92.07745,-36.75,15.991,-12.889
92.088143,-39.62,18.234,-12.707
92.098823,-41.65,19.608,-12.038
92.109503,-42.7,19.973,-10.481
92.120183,-42.77,19.333,-8.461
92.130863,-41.51,18.348,-6.503
92.141543,-40.32,16.049,-4.349
92.152223,-37.94,12.781,-1.94
92.162903,-35.07,9.91,-0.172
92.173583,-32.48,6.602,1.662
92.184263,-29.82,2.458,2.992
92.194943,-28.77,-1.066,4.432
92.205623,-28.49,-4.273,5.288
92.216303,-30.59,-8.401,4.916
92.226976,-32.9,-12.148,4.397
92.237649,-35.35,-14.857,3.635
92.248322,-37.38,-16.84,1.58
92.258995,-38.29,-18.057,-1.194
92.269668,-37.94,-18.99,-2.353
92.280341,-36.89,-19.696,-3.189
92.291014,-35,-20.884,-6.526
92.301687,-32.55,-21.566,-11.124
92.31236,-29.05,-20.922,-14.778
92.323033,-24.43,-20.266,-20.917
92.333706,-17.5,-17.842,-30.227
92.344379,-9.24,-13.623,-42.065
92.35507,0.14,-8.73,-54.494
92.365761,8.12,-4.332,-65.731
92.376452,15.4,-2.48,-74.218
92.387143,22.82,-1.735,-81.266
92.397834,29.05,-1.5,-85.418
92.408525,34.65,-1.139,-85.852
92.419216,40.32,-1.273,-83.885
92.429907,45.57,-2.112,-80.337
92.440598,51.03,-2.172,-76.367
92.451289,56.14,-2.601,-71.112
92.46198,60.76,-2.215,-64.434
92.472671,63.35,-1.8,-55.902
92.483387,62.93,-1.377,-47.013
92.494103,59.15,-0.983,-38.77
92.504819,53.27,-1.225,-30.141
92.515535,45.29,-1.816,-22.355
92.526251,36.68,-2.107,-15.867
92.536967,27.58,-1.806,-11.123
92.547683,19.39,-0.893,-7.834
92.558399,12.74,0.19,-5.511
92.569115,6.37,1.334,-3.532
92.579831,0.77,2.149,-2.109
92.590547,-4.69,2.559,-0.402
92.601263,-10.01,3.386,-0.256
92.611968,-15.12,3.962,-1.505
92.622673,-20.16,3.872,-1.805
92.633378,-24.01,3.694,-2.405
92.644083,-27.51,2.939,-2.965
92.654788,-30.59,2.262,-3.155
92.665493,-33.6,1.245,-2.624
92.676198,-36.05,0.348,-2.782
92.686903,-38.29,0.036,-3.832
92.697608,-39.76,-0.005,-4.408
92.708313,-40.95,0.145,-4.452
92.719018,-41.65,1.54,-4.704
92.729723,-41.65,3.016,-7.429
92.740428,-40.74,5.124,-10.114
92.751132,-41.16,7.281,-11.866
92.761836,-42.63,9.147,-10.755
92.77254,-45.92,10.915,-9.093
92.783244,-49.84,12.76,-7.062
92.793948,-54.25,14.33,-5.079
92.804652,-58.24,16.593,-3.4
92.815356,-62.16,18.41,-0.805
92.82606,-64.4,20.267,2.365
92.836764,-66.08,21.399,5.621
92.847468,-67.97,23.577,8.991
92.858172,-70.63,25.621,11.91
92.868876,-74.41,26.684,12.737
92.879601,-78.75,27.353,13.779
92.890326,-81.2,27.143,17.794
92.901051,-79.73,26.044,23.215
92.911776,-76.51,24.293,28.309
92.922501,-71.26,21.46,35.912
92.933226,-62.72,18.992,43.864
92.943951,-52.5,16.559,47.984
92.954676,-42,14.159,49.907
92.965401,-32.13,11.345,54.173
92.976126,-22.4,8.386,60.475
92.986851,-14.98,5.735,64.628
92.997576,-8.4,4.259,64.936
93.008301,-2.31,3.918,62.033
93.019026,3.64,4.995,56.323
93.029751,8.89,6.831,48.33
93.040476,13.51,7.892,39.49
93.051201,18.27,8.345,30.472
93.061926,21.84,8.746,22.155
93.072651,25.9,9.041,14.033
93.083376,28.42,8.472,7.18
93.094101,30.45,7.806,0.879
93.104826,32.27,7.623,-5.337
93.115551,33.81,7.67,-11.655
93.126276,34.16,7.686,-16.983
93.137001,34.02,8.516,-22.097
93.14771,33.32,9.424,-26.841
93.158419,32.97,10.729,-31.018
93.169128,31.99,12.071,-34.193
93.179837,31.64,13.474,-35.297
93.190546,30.87,14.451,-35.195
93.201255,30.17,14.869,-33.131
93.211964,28.91,15.206,-29.802
93.222673,27.23,15.458,-25.991
93.233382,25.48,15.82,-21.591
93.244091,23.52,15.617,-17.22
93.2548,21.56,15.225,-12.171
93.265509,20.16,14.512,-7.321
93.276218,17.85,14.079,-2.849
93.286932,15.82,13.134,0.894
93.297646,12.81,11.93,4.094
93.30836,8.89,10.037,7.172
93.319074,5.11,7.657,9.382
93.329788,-0.21,4.985,10.83
93.340502,-6.51,2.07,11.24
93.351216,-12.46,-0.619,10.766
93.36193,-18.27,-2.448,9.448
93.372644,-24.01,-4.549,6.448
93.383358,-28,-6.179,3.602
93.394072,-30.66,-7.076,1.027
93.404786,-31.92,-8.135,-1.434
93.41552,-32.27,-9.729,-5.696
93.426254,-34.02,-11.254,-9.945
93.436988,-34.86,-12.596,-10.395
93.447722,-35.56,-13.768,-10.602
93.458456,-33.53,-13.383,-13.59
93.46919,-30.59,-11.657,-19.754
93.479924,-25.83,-7.242,-27.861
93.490658,-21.42,-1.988,-38.307
93.501392,-16.87,2.746,-49.84
93.512126,-12.32,6.297,-60.303
93.52286,-7.7,8.316,-66.913
93.533594,-3.29,8.429,-69.167
93.544333,0.98,7.358,-67.934
93.555072,5.25,5.879,-63.575
93.565811,10.22,4.339,-57.663
93.57655,14.28,2.908,-51.162
93.587289,18.69,1.498,-44.374
93.598028,23.31,0.246,-37.274
93.608767,27.79,-1.062,-29.046
93.619506,31.78,-2.639,-20.51
93.630245,35.98,-4.008,-11.937
93.640984,38.57,-5.815,-4.508
93.651723,40.46,-7.339,2.118
93.662462,42.21,-7.995,8.257
93.673201,42.35,-8.822,12.945
93.68394,41.44,-9.571,16.793
93.694697,39.9,-10.739,20.994
93.705454,36.75,-11.934,24.551
93.716211,34.3,-12.786,26.959
93.726968,31.22,-13.45,29.117
93.737725,28.56,-13.791,31.047
93.748482,25.48,-14.366,32.296
93.759239,21.91,-14.662,33.168
93.769996,18.06,-14.407,32.929
93.780753,13.72,-14.082,32.701
93.79151,8.89,-13.864,31.461
93.802267,3.15,-14.294,29.466
93.812996,-2.8,-14.087,27.085
93.823725,-9.1,-13.978,24.048
93.834454,-15.33,-13.719,19.758
93.845183,-21.21,-12.447,15.362
93.855912,-26.53,-11.267,11.092
93.866641,-31.92,-9.711,7.102
93.87737,-38.57,-9.367,3.537
93.888099,-45.5,-9.16,2.365
93.898828,-53.69,-9.209,2.641
93.909557,-62.16,-9.525,2.017
93.920286,-69.65,-10.522,1.628
93.931015,-75.74,-11.832,1.397
93.941744,-78.68,-12.818,0.938
93.95247,-79.1,-13.548,0.241
93.963196,-77.35,-13.921,-0.464
93.973922,-73.5,-12.997,-2.078
93.984648,-69.09,-12.6,-5.136
93.995374,-64.26,-12.738,-6.369
94.0061,-59.43,-13.99,-2.893
94.016826,-53.41,-15.915,4.799
94.027552,-45.71,-17.325,11.588
94.038278,-37.52,-17.937,17.877
94.049004,-28.42,-18.122,25.379
94.05973,-19.81,-18.093,32.065
94.070456,-11.34,-17.727,37.248
94.081147,-2.45,-16.664,41.7
94.091838,5.32,-14.368,47.222
94.102529,12.11,-10.686,50.928
94.11322,17.85,-6.282,50.141
94.123911,23.1,0.035,45.355
94.134602,26.95,7.061,40.979
94.145293,30.24,14.578,34.628
94.155984,31.71,21.844,25.673
94.166675,30.87,27.341,16.265
94.177366,27.65,31.358,7.591
94.188057,23.38,34.131,-0.877
94.198748,19.53,35.809,-7.973
94.209439,15.19,36.975,-14.591
94.220135,10.85,37.003,-21.197
94.230831,7,37.071,-27.226
94.241527,5.25,36.044,-31.885
94.252223,4.2,34.588,-34.914
94.262919,4.27,33.23,-36.078
94.273615,3.64,31.462,-35.323
94.284311,2.87,28.907,-32.931
94.295007,1.61,25.737,-28.656
94.305703,-1.33,22.611,-23.023
94.316399,-4.06,19.417,-18.611
94.327095,-5.39,16.94,-14.641
94.337791,-6.93,14.698,-9.989
94.348504,-8.54,12.695,-7.499
94.359217,-9.31,10.112,-5.751
94.36993,-9.24,8.118,-4.113
94.380643,-9.59,5.445,-2.665
94.391356,-9.87,2.198,-1.176
94.402069,-11.69,-0.766,-0.491
94.412782,-13.72,-4.27,0.029
94.423495,-15.12,-7.725,0.273
94.434208,-17.36,-11.338,0.204
94.444921,-19.95,-14.545,-0.148
94.455634,-21.84,-16.995,-1.575
94.466347,-23.03,-17.603,-4.17
94.47706,-22.96,-17.66,-6.668
94.487764,-21.28,-17.251,-7.378
94.498468,-18.97,-15.998,-7.228
94.509172,-15.19,-13.772,-8.968
94.519876,-10.78,-12.272,-10.622
94.53058,-5.53,-11.887,-12.403
94.541284,-0.84,-11.915,-10.631
94.551988,4.13,-11.468,-6.713
94.562692,10.08,-10.126,-7.472
94.573396,16.1,-7.528,-13.34
94.5841,21.98,-3.705,-19.703
94.594804,27.86,0.422,-27.789
94.605508,33.25,4.326,-36.625
94.61621,38.15,6.981,-43.621
94.626912,41.16,8.367,-47.854
94.637614,43.26,9.198,-49.342
94.648316,44.38,9.064,-47.376
94.659018,44.24,8.392,-44.367
94.66972,44.73,8.044,-39.168
94.680422,44.52,7.047,-32.307
94.691124,43.4,5.564,-25.105
94.701826,40.95,4.276,-17.798
94.712528,37.66,2.951,-10.284
94.72323,31.22,1.163,-2.567
94.733932,23.94,-0.486,3.966
94.744634,16.17,-2.067,9.302
94.755339,9.31,-3.502,13.812
94.766044,2.31,-4.977,17.745
94.776749,-3.92,-6.919,21.099
94.787454,-10.15,-9.838,23.143
94.798159,-15.54,-12.518,25.443
94.808864,-20.02,-14.837,27.308
94.819569,-23.31,-17.368,28.355
94.830274,-25.83,-19.399,28.992
94.840979,-27.37,-20.725,29.256
94.851684,-27.65,-21.475,29.479
94.862389,-28.07,-21.536,28.615
94.873094,-28.14,-21.974,27.472
94.883802,-28.91,-22.08,26.458
94.89451,-31.57,-22.06,25.537
94.905218,-34.37,-22.036,24.191
94.915926,-38.29,-21.342,22.678
94.926634,-42,-19.891,20.091
94.937342,-44.59,-18.103,15.999
94.94805,-46.06,-15.497,11.697
94.958758,-46.97,-12.598,9.365
94.969466,-47.46,-9.228,5.978
94.980174,-48.44,-5.592,2.284
94.990882,-50.19,-1.894,-0.547
95.00159,-52.15,1.293,-2.899
95.012274,-53.76,5.092,-5.499
95.022958,-56.35,8.636,-7.86
95.033642,-59.01,12.561,-9.158
95.044326,-60.55,15.995,-10.898
95.05501,-57.89,18.927,-11.803
95.065694,-52.22,21.243,-10.826
95.076378,-44.31,23.826,-8.949
95.087062,-35.63,26.369,-6.439
95.097746,-26.81,29.41,-5.547
95.10843,-18.69,31.952,-6.663
95.119114,-9.94,33.83,-4.412
95.129798,-2.45,35.214,1.447
95.140482,5.39,35.791,8.656
95.151132,14.14,36.408,16.442
95.161782,22.75,36.51,23.923
95.172432,29.82,37.046,29.349
95.183082,35.07,36.415,34.142
95.193732,40.67,35.341,40.634
95.204382,46.27,34.288,48.623
95.215032,50.4,33.477,54.024
95.225682,54.25,33.072,54.308
95.236332,56.98,31.875,51.822
95.246982,57.12,30.906,48.453
95.257632,55.93,28.93,44.337
95.268282,52.36,26.334,38.904
95.278932,46.55,22.664,32.713
95.28958,38.85,18.356,25.698
95.300228,30.17,14.657,17.653
95.310876,18.76,9.977,9.933
95.321524,7.28,5.39,3.296
95.332172,-4.2,0.429,-2.839
95.34282,-14.63,-3.732,-9.472
95.353468,-22.68,-6.474,-15.286
95.364116,-29.54,-8.271,-20.01
95.374764,-35.56,-9.431,-23.911
95.385412,-40.25,-10.182,-26.105
95.39606,-43.61,-10.587,-27.029
95.406708,-45.36,-11.163,-26.988
95.417368,-45.85,-11.816,-26.108
95.428028,-45.5,-12.537,-24.032
95.438688,-43.47,-13.644,-21.384
95.449348,-41.02,-14.398,-18.318
95.460008,-38.36,-15.006,-14.872
95.470668,-35,-15.589,-11.563
95.481328,-31.43,-15.532,-9.065
95.491988,-27.3,-15.406,-6.555
95.502648,-23.31,-15.081,-4.365
95.513308,-19.53,-14.282,-2.447
95.523968,-16.73,-13.398,-1.012
95.534628,-13.37,-12.643,0.756
95.545276,-11.34,-11.974,3.006
95.555924,-10.5,-11.24,4.486
95.566572,-10.57,-11.098,5.293
95.57722,-11.97,-11.215,5.557
95.587868,-13.86,-11.568,6.348
95.598516,-14.91,-11.884,5.723
95.609164,-15.82,-12.002,4.778
95.619812,-16.59,-11.516,4.438
95.63046,-16.03,-10.62,3.387
95.641108,-14.14,-10.956,1.267
95.651756,-11.27,-13.232,-1.551
95.662404,-7.14,-15.437,0.477
95.673052,-0.84,-16.848,2.431
95.68368,5.53,-16.504,-3.55
95.694308,12.81,-13.509,-14.892
95.704936,21.77,-8.41,-28.493
95.715564,30.03,-3.007,-42.609
95.726192,36.82,0.779,-53.599
95.73682,43.19,1.983,-58.007
95.747448,47.32,1.241,-55.01
95.758076,47.04,-0.696,-47.249
95.768704,42.56,-2.986,-38.696
95.779332,35.49,-4.072,-32.135
95.78996,27.16,-3.507,-27.273
95.800588,20.51,-2.42,-21.751
95.811216,14.14,-1.178,-15.49
95.821851,8.54,-0.905,-7.765
95.832486,3.43,-2.445,0.564
95.843121,-1.89,-4.382,8.326
95.853756,-7.14,-7.094,15.24
95.864391,-12.53,-9.19,21.481
95.875026,-18.06,-11.18,26.318
95.885661,-22.47,-12.996,29.765
95.896296,-26.18,-14.302,31.525
95.906931,-28.21,-15.169,32.012
95.917566,-29.54,-15.693,31.351
95.928201,-30.45,-15.575,29.879
95.938836,-31.01,-15.186,27.673
95.949471,-31.01,-14.404,25.252
95.960106,-30.59,-12.758,22.771
95.970757,-29.68,-11.242,19.413
95.981408,-29.4,-9.377,16.898
95.992059,-28.63,-7.698,14.636
96.00271,-27.79,-5.635,11.801
96.013361,-27.37,-3.875,9.481
96.024012,-27.3,-2.505,8.159
96.034663,-27.23,-1.613,7.534
96.045314,-27.23,-0.275,7.202
96.055965,-26.81,1.282,5.628
96.066616,-27.65,3.69,2.854
96.077293,-27.86,6.131,0.299
96.08797,-28.28,8.325,-1.66
96.098647,-29.75,10.729,-2.799
96.109324,-31.01,13.823,-3.818
96.120001,-33.25,17.213,-4.499
96.130678,-36.4,20.311,-4.735
96.141355,-38.36,23.498,-4.671
96.152032,-38.78,27.164,-4.095
96.162709,-37.87,31.255,-3.516
96.173386,-34.72,35.185,-2.823
96.184063,-30.03,39.236,-1.611
96.19474,-22.61,43.319,-0.18
96.205417,-15.54,46.105,-0.258
96.216117,-8.54,48.421,-0.489
96.226817,-4.69,48.758,2.84
96.237517,-0.56,48.689,7.661
96.248217,2.94,47.923,9.587
96.258917,7.56,47.011,11.133
96.269617,13.93,45.763,15.39
96.280317,22.26,44.754,19.904
96.291017,31.15,42.735,22.889
96.301717,39.9,39.56,27.589
96.312417,46.76,35.652,35.642
96.323117,50.82,33.249,41.616
96.333817,51.31,33.455,41.652
96.344505,49.21,36.849,36.92
96.355193,43.75,42.298,28.995
96.365881,36.61,47.783,19.656
96.376569,29.05,53.179,11.225
96.387257,23.87,58.165,3.504
96.397945,19.32,61.141,-3.293
96.408633,15.05,64.376,-9.546
96.419321,10.15,67.007,-15.195
96.430009,4.9,68.948,-19.757
96.440697,-1.4,69.191,-23.553
96.451385,-8.19,67.69,-25.523
96.462073,-14.56,64.787,-25.182
96.472761,-19.39,60.599,-22.793
96.483474,-22.61,55.871,-19.362
96.494187,-25.76,50.268,-14.593
96.5049,-27.51,45.244,-10.29
96.515613,-27.79,40.338,-7.459
96.526326,-26.04,35.618,-4.879
96.537039,-21.84,30.594,-2.993
96.547752,-18.48,25.465,-0.912
96.558465,-15.12,20.47,1.619
96.569178,-12.04,15.02,3.501
96.579891,-8.89,10.41,5.461
96.590604,-7.14,5.791,5.855
96.601317,-6.72,1.063,5.661
96.612056,-6.3,-2.931,4.53
96.622795,-6.09,-6.755,2.434
96.633534,-7,-10.328,-0.684
96.644273,-9.94,-13.005,-4.852
96.655012,-12.53,-15.098,-7.496
96.665751,-14.49,-16.262,-10.971
96.67649,-15.33,-17.414,-14.514
96.687229,-17.71,-18.55,-16.136
96.697968,-18.76,-19.312,-15.844
96.708707,-19.81,-20.022,-15.045
96.719446,-20.86,-20.07,-12.353
96.730185,-20.65,-19.072,-8.338
96.740944,-20.09,-17.486,-5.642
96.751703,-20.3,-18.796,-4.665
96.762462,-21.91,-22.68,-0.374
96.773221,-21.28,-26.584,7.254
96.78398,-21.07,-29.766,10.389
96.794739,-20.58,-32.13,9.688
96.805498,-19.39,-32.585,6.622
96.816257,-17.92,-30.538,0.657
96.827016,-14.14,-27.527,-8.763
96.837775,-8.19,-24.134,-19.538
96.848534,-1.33,-23.04,-26.95
96.859293,4.83,-22.878,-28.272
96.870052,9.38,-23.028,-27.019
96.880798,12.67,-22.817,-26.2
96.891544,15.82,-21.414,-24.887
96.90229,19.74,-19.714,-22.028
96.913036,22.61,-16.985,-18.561
96.923782,24.08,-14.645,-15.306
96.934528,24.78,-12.438,-10.083
96.945274,22.89,-11.018,-3.222
96.95602,20.37,-9.808,4.028
96.966766,17.71,-8.936,10.366
96.977512,13.58,-8.233,16.46
96.988258,9.8,-8.212,22.79
96.999004,5.74,-9.193,27.948
97.00975,1.61,-10.871,31.42
97.020487,-1.82,-13.016,34.311
97.031224,-5.18,-16.114,35.755
97.041961,-7.28,-18.741,36.145
97.052698,-8.68,-21.316,35.833
97.063435,-9.94,-24.471,34.779
97.074172,-10.22,-27.849,32.975
97.084909,-10.5,-31.787,30.717
97.095646,-11.55,-35.124,28.28
97.106383,-12.11,-37.821,25.033
97.11712,-12.6,-39.801,21.343
97.127857,-13.93,-41.281,17.244
97.138594,-15.19,-41.963,12.645
97.14934,-16.59,-41.404,8.266
97.160086,-17.99,-40.245,3.708
97.170832,-18.48,-38.04,-0.737
97.181578,-18.41,-35.198,-5.567
97.192324,-17.29,-32.312,-10.247
97.20307,-15.05,-28.906,-13.84
97.213816,-13.51,-25.456,-17.283
97.224562,-13.65,-22.37,-18.658
97.235308,-14.56,-18.98,-19.34
97.246054,-15.82,-16.117,-20.256
97.2568,-16.87,-13.879,-20.857
97.267546,-17.15,-11.685,-19.191
97.278299,-16.73,-10.095,-15.712
97.289052,-14.7,-8.546,-12.809
97.299805,-13.09,-6.996,-9.905
97.310558,-10.08,-4.835,-7.25
97.321311,-5.39,-3.006,-5.932
97.332064,-2.1,-1.74,-5.851
97.342817,0.84,-1.979,-1.273
97.35357,2.45,-3.495,5.71
97.364323,3.5,-5.55,12.527
97.375076,2.73,-8.14,17.543
97.385829,1.47,-10.081,24.522
97.396582,0.91,-12.007,31.006
97.407349,0.42,-13.482,32.523
97.418116,1.19,-14.869,33.131
97.428883,3.08,-16.434,37.973
97.43965,3.43,-18.331,43.894
97.450417,3.08,-19.997,47.296
97.461184,2.94,-19.908,46.388
97.471951,3.15,-18.773,41.968
97.482718,3.85,-16.612,34.956
97.493485,4.34,-13.609,26.388
97.504252,4.34,-10.703,17.162
97.515019,4.13,-8.851,7.466
97.525786,3.99,-7.238,-0.068
97.536517,2.94,-6.002,-6.674
97.547248,0.77,-5.338,-12.456
97.557979,-2.38,-4.808,-17.48
97.56871,-5.6,-4.569,-22.059
97.579441,-9.38,-3.884,-26.345
97.590172,-12.6,-3.139,-29.767
97.600903,-15.75,-1.979,-31.908
97.611634,-17.85,-0.933,-33.003
97.622365,-18.97,0.263,-32.935
97.633096,-20.09,0.259,-31.301
97.643827,-20.86,0.179,-27.619
97.654558,-21.35,-0.25,-22.363
97.665289,-21.49,-0.655,-17.246
97.676008,-21.35,-1.352,-11.682
97.686727,-21.07,-1.834,-6.934
97.697446,-20.3,-1.975,-2.907
97.708165,-19.53,-1.796,0.11
97.718884,-18.2,-1.63,1.987
97.729603,-16.38,-1.934,3.711
97.740322,-15.12,-2.242,5.86
97.751041,-13.93,-2.854,7.316
97.76176,-12.88,-4.192,8.857
97.772479,-12.67,-5.866,9.485
97.783198,-13.23,-7.841,10.203
97.793917,-14.56,-9.617,10.601
97.804622,-16.66,-11.612,9.823
97.815327,-19.53,-13.802,7.731
97.826032,-23.31,-15.81,4.605
97.836737,-26.04,-17.241,2.646
97.847442,-29.26,-18.961,-0.5
97.858147,-32.9,-20.283,-3.079
97.868852,-34.23,-20.762,-4.798
97.879557,-35.07,-21.89,-7.272
97.890262,-35.35,-24.433,-8.573
97.900967,-35.56,-27.056,-7.401
97.911672,-35.28,-29.931,-5.206
97.922377,-34.51,-31.467,-4.553
97.93305,-32.62,-32.295,-5.908
97.943723,-29.33,-30.864,-9.991
97.954396,-24.08,-27.102,-16.009
97.965069,-17.64,-23.064,-23.187
97.975742,-10.08,-19.318,-31.127
97.986415,-3.08,-16.777,-38.285
97.997088,3.08,-14.429,-41.923
98.007761,7.91,-12.844,-42.851
98.018434,10.92,-11.571,-43.622
98.029107,13.79,-10.902,-43.788
98.03978,16.24,-9.787,-42.454
98.050453,17.43,-8.108,-41.092
98.061126,17.92,-7.377,-37.978
98.0718,17.78,-7.19,-33.396
98.082474,17.22,-6.877,-27.512
98.093148,15.89,-7.127,-20.448
98.103822,13.93,-7.589,-12.995
98.114496,10.71,-7.596,-6.102
98.12517,7.49,-8.357,0.232
98.135844,4.06,-9.078,5.934
98.146518,0.91,-9.252,10.95
98.157192,-2.17,-9.697,15.491
98.167866,-4.83,-10.561,19.178
98.17854,-7.07,-10.601,22.227
98.189214,-10.29,-10.759,24.331
98.199887,-11.97,-11.006,26.136
98.21056,-13.51,-10.839,26.805
98.221233,-14.28,-11.005,27.344
98.231906,-14.7,-10.912,27.219
98.242579,-15.26,-10.766,26.391
98.253252,-15.54,-10.458,25.451
98.263925,-15.68,-10.292,23.703
98.274598,-16.31,-9.916,21.566
98.285271,-17.01,-9.474,18.658
98.295944,-18.13,-9.235,15.289
98.306617,-19.25,-7.889,11.688
98.31729,-21.7,-7.253,7.677
98.327949,-23.8,-6.232,4.303
98.338608,-25.13,-5.138,0.516
98.349267,-26.46,-4.42,-3.552
98.359926,-27.16,-3.054,-6.865
98.370585,-28.28,-2.207,-8.848
98.381244,-30.45,-1.798,-10.766
98.391903,-33.11,-1.445,-11.557
98.402562,-34.58,-1.036,-12.266
98.413221,-35.28,-0.476,-11.812
98.42388,-33.53,-0.046,-11.026
98.434539,-29.96,0.736,-11.03
98.445198,-25.2,1.884,-10.685
98.455857,-19.46,4.054,-10.089
98.466497,-14.28,6.308,-12.393
98.477137,-9.8,8.031,-12.089
98.487777,-6.86,9.155,-7.981
98.498417,-4.83,9.829,-3.74
98.509057,-2.66,10.973,0.655
98.519697,0,12.186,7.48
98.530337,3.15,13.225,14.487
98.540977,5.95,14.045,19.109
98.551617,7.98,13.867,22.134
98.562257,10.01,13.324,27.227
98.572897,11.34,12.295,33.87
98.583537,12.74,11.732,38.675
98.594177,14.7,11.7,39.664
98.6048,17.43,12.62,38.476
98.615423,20.51,13.394,34.49
98.626046,23.8,14.395,28.411
98.636669,26.39,15.355,21.757
98.647292,28.28,16.194,14.584
98.657915,29.19,15.532,7.856
98.668538,28.98,14.614,1.369
98.679161,28.42,12.858,-3.988
98.689784,26.25,11.162,-9.689
98.700407,23.03,9.223,-14.011
98.71103,18.55,8.018,-18.062
98.721653,14,7.45,-22.498
98.732289,9.38,6.983,-25.495
98.742925,4.2,6.723,-27.246
98.753561,-0.56,5.941,-27.242
98.764197,-5.6,4.887,-25.296
98.774833,-9.03,4.384,-22.044
98.785469,-12.11,4.008,-17.49
98.796105,-15.05,4.122,-13.702
98.806741,-17.71,4.402,-10.454
98.817377,-20.02,4.974,-7.652
98.828013,-21.49,5.709,-4.964
98.838649,-22.26,6.601,-3.172
98.849285,-22.61,7.323,-1.623
98.859927,-22.26,7.944,-0.305
98.870569,-21.98,8.143,0.583
98.881211,-21.56,8.195,1.09
98.891853,-21.7,7.636,1.844
98.902495,-21.56,6.74,1.686
98.913137,-21.63,5.523,1.329
98.923779,-22.89,4.246,1.317
98.934421,-24.92,2.632,0.393
98.945063,-28.07,1.61,-1.067
98.955705,-30.73,0.831,-3.905
98.966347,-32.9,-0.131,-6.918
98.976989,-34.86,-0.966,-8.629
98.987631,-36.26,-1.567,-9.659
98.998311,-37.24,-2.134,-10.47
99.008991,-37.24,-1.79,-11.617
99.019671,-35.77,-1.648,-13.227
99.030351,-33.39,-3.108,-14.622
99.041031,-30.59,-5.898,-12.91
99.051711,-26.04,-8.415,-7.099
99.062391,-22.12,-10.937,-4.487
99.073071,-17.29,-12.502,-5.687
99.083751,-10.57,-12.45,-8.806
99.094431,-3.64,-10.695,-14.325
99.105111,2.45,-7.76,-21.697
99.115791,7.56,-4.846,-29.357
99.126474,11.55,-2.483,-37.115
99.137157,14.84,-1.518,-41.778
99.14784,18.41,-1.068,-43.121
99.158523,21.56,-1.36,-42.675
99.169206,23.8,-2.41,-39.945
99.179889,26.04,-3.492,-36.227
99.190572,27.51,-4.242,-31.17
99.201255,28.14,-4.78,-25.294
99.211938,27.51,-5.173,-19.037
99.222621,25.69,-5.662,-12.229
99.233304,23.17,-6.683,-5.23
99.243987,19.74,-7.842,1.745
99.25467,15.89,-8.247,8.071
99.265366,12.46,-8.708,13.107
99.276062,8.82,-8.951,18.111
99.286758,5.39,-9.53,22.202
99.297454,1.82,-10.207,25.637
99.30815,-1.89,-10.896,27.932
99.318846,-5.81,-11.22,29.368
99.329542,-8.89,-11.654,30.215
99.340238,-11.34,-11.605,29.94
99.350934,-13.3,-11.516,29.031
99.36163,-14.91,-11.318,27.503
99.372326,-16.45,-11.221,25.743
99.383022,-17.5,-11.156,23.764
99.393717,-18.83,-10.414,20.767
99.404412,-20.79,-10.074,17.628
99.415107,-23.03,-9.596,14.514
99.425802,-24.99,-8.619,10.99
99.436497,-27.37,-7.793,7.511
99.447192,-29.89,-7.23,3.914
99.457887,-32.06,-6.484,0.492
99.468582,-33.39,-5.321,-3.284
99.479277,-34.23,-4.137,-6.771
99.489972,-34.79,-3.42,-9.63
99.500667,-35.63,-3.027,-11.053
99.511362,-37.45,-2.175,-12.254
99.522057,-39.27,-1.474,-13.41
99.532777,-39.48,-0.918,-13.738
99.543497,-39.34,-0.261,-13.836
99.554217,-38.01,0.529,-13.483
99.564937,-35.35,0.967,-12.339
99.575657,-30.73,1.251,-10.726
99.586377,-25.62,1.686,-7.948
99.597097,-19.46,3.069,-5.714
99.607817,-12.74,4.265,-5.645
99.618537,-7.14,4.569,-3.743
99.629257,-1.89,5.065,2.315
99.639977,2.52,6.144,6.272
99.650697,5.46,6.153,9.046
99.661401,7.49,6.514,13.445
99.672105,9.03,6.592,18.648
99.682809,9.17,5.757,24.187
99.693513,8.68,5.081,28.83
99.704217,8.61,4.591,32.014
99.714921,7.91,3.087,35.302
99.725625,7.56,1.786,40.262
99.736329,6.79,0.939,43.453
99.747033,6.65,0.817,42.934
99.757737,7,0.918,39.54
99.768441,8.33,2.726,34.528
99.779145,9.38,3.613,28.287
99.789849,10.64,4.35,20.883
99.800575,11.97,4.479,13.3
99.811301,12.04,3.699,6.836
99.822027,11.83,2.21,2.38
99.832753,10.71,0.531,-1.399
99.843479,8.75,-0.723,-5.174
99.854205,6.79,-2.917,-9.257
99.864931,3.85,-4.831,-12.509
99.875657,1.26,-4.937,-15.939
99.886383,-1.4,-4.775,-18.47
99.897109,-3.64,-4.828,-20.185
99.907835,-5.81,-4.411,-20.538
99.918561,-7.42,-3.839,-20.153
99.929319,-9.03,-3.247,-18.271
99.940077,-9.73,-2.816,-15.068
99.950835,-10.22,-2.122,-11.747
99.961593,-10.15,-1.299,-8.759
99.972351,-9.52,-0.232,-5.941
99.983109,-9.38,0.377,-3.345
99.993867,-8.05,1.184,-1.071
100.004625,-6.51,1.744,0.592
100.015383,-5.04,2.206,1.597
100.026141,-3.36,2.137,2.794
100.036899,-2.31,1.558,4.468
100.047657,-1.47,0.443,6.76
100.058411,0.63,-0.506,8.511
100.069165,0.98,-2.359,9.749
100.079919,0.56,-4.435,11.444
100.090673,-1.26,-6.239,12.405
100.101427,-4.76,-8.149,12.353
100.112181,-8.82,-9.787,11.566
100.122935,-11.97,-11.738,10.938
100.133689,-14.98,-13.786,9.653
100.144443,-17.29,-15.696,8.392
100.155197,-18.27,-17.638,8.121
100.165951,-17.99,-19.256,7.622
100.176705,-16.17,-20.489,6.552
100.187459,-13.23,-23.315,6.053
100.198189,-10.22,-27.861,8.45
100.208919,-6.79,-31.291,13.39
100.219649,-4.55,-33.756,13.666
100.230379,-1.96,-35.48,10.945
100.241109,2.1,-35.594,8.366
100.251839,5.53,-35.01,3.849
100.262569,9.24,-32.813,-2.161
100.273299,13.72,-30.771,-8.909
100.284029,18.9,-28.793,-16.094
100.294759,23.73,-27.873,-20.908
100.305489,27.72,-27.792,-22.173
100.316219,30.31,-27.451,-22.895
100.326949,32.41,-27.654,-23.357
100.337692,34.44,-27.82,-22.818
100.348435,36.19,-27.35,-21.455
100.359178,36.47,-26.478,-19.951
100.369921,35,-25.054,-17.141
100.380664,32.06,-23.521,-12.535
100.391407,27.3,-22.457,-6.874
100.40215,21.14,-22.011,-0.54
100.412893,14.7,-21.028,6.385
100.423636,8.68,-19.916,12.979
100.434379,1.82,-19.887,18.457
100.445122,-4.62,-19.461,23.295
100.455865,-10.43,-19.533,27.333
100.466608,-15.61,-19.37,30.845
100.477351,-20.23,-19.459,32.962
100.488095,-23.73,-20.08,34.061
100.498839,-26.53,-20.526,33.769
100.509583,-29.12,-20.761,33.088
100.520327,-30.59,-21.037,31.831
100.531071,-32.69,-21.678,30.225
100.541815,-34.09,-22.319,28.619
100.552559,-36.05,-23.077,27.277
100.563303,-37.66,-24.051,25.542
100.574047,-39.06,-24.943,23.75
100.584791,-40.88,-25.507,21.304
100.595508,-42.98,-26.038,19.078
100.606225,-45.64,-26.566,16.426
100.616942,-47.18,-26.364,13.263
100.627659,-48.65,-26.34,10.709
100.638376,-49.28,-26.19,8.247
100.649093,-49.63,-25.765,4.626
100.65981,-50.82,-24.61,1.702
100.670527,-51.66,-23.685,0.088
100.681244,-52.64,-23.178,-1.173
100.691961,-52.99,-22.887,-2.827
100.702678,-52.15,-22.141,-3.833
100.713395,-50.26,-21.415,-3.918
100.724112,-46.97,-20.498,-3.472
100.734829,-42.42,-18.921,-3.55
100.745551,-36.47,-16.687,-3.724
100.756273,-30.24,-14.181,-3.424
100.766995,-22.19,-12.453,-2.338
100.777717,-15.61,-11.229,-2.833
100.788439,-10.64,-9.542,-1.114
100.799161,-7.63,-7.08,1.453
100.809883,-5.25,-4.359,2.146
100.820605,-2.1,-1.849,0.811
100.831327,0.14,0.325,2.19
100.842049,3.57,1.485,6.09
100.852771,5.6,1.267,9.748
100.863464,7.98,0.655,12.412
100.874157,10.99,-0.813,15.494
100.88485,13.51,-1.599,19.549
100.895543,14.35,-2.422,23.811
100.906236,14,-2.892,24.866
100.916929,13.79,-2.332,22.903
100.927622,13.65,-1.34,18.884
100.938315,13.93,0.582,14.034
100.949008,13.09,2.815,7.818
100.959701,12.39,3.698,2.003
100.970394,11.55,4.249,-2.734
100.981087,10.64,4.743,-6.343
100.99178,8.4,4.204,-8.926
101.002445,6.02,3.879,-11.115
101.01311,3.08,3.664,-13.925
101.023775,0,3.825,-17.664
101.03444,-2.59,4.267,-20.572
101.045105,-4.48,5.033,-22.498
101.05577,-6.51,5.475,-22.989
101.066435,-7.84,5.751,-22.94
101.0771,-9.31,5.775,-21.869
101.087765,-10.08,5.545,-19.351
101.09843,-10.99,5.075,-15.88
101.109095,-12.53,4.994,-12.198
101.11976,-13.58,4.492,-8.946
101.130425,-14.49,4.07,-5.751
101.141113,-14.91,4.055,-2.839
101.151801,-15.05,4.574,-0.544
101.162489,-14.91,4.526,0.94
101.173177,-15.47,4.331,2.043
101.183865,-15.82,4.51,2.643
101.194553,-16.45,4.802,3.406
101.205241,-17.99,4.846,3.556
101.215929,-18.55,5.41,3.584
101.226617,-20.44,5.183,3.259
101.237305,-21.98,5.365,3.434
101.247993,-23.8,5.053,3.592
101.258672,-26.81,4.623,4.014
101.269351,-30.24,3.828,4.087
101.28003,-34.02,2.575,3.937
101.290709,-37.31,1.85,4.022
101.301388,-40.88,0.909,3.714
101.312067,-43.89,0.491,2.859
101.322746,-45.99,0.678,2.607
101.333425,-46.41,0.203,2.879
101.344104,-45.99,-1.237,1.772
101.354783,-44.1,-2.781,2.068
101.365462,-40.74,-4.407,4.838
101.376141,-36.33,-5.259,4.83
101.38682,-30.17,-4.655,1.809
101.397497,-22.68,-1.489,-3.248
101.408174,-13.93,3.279,-10.937
101.418851,-5.67,9.242,-20.974
101.429528,2.45,15.993,-29.024
101.440205,9.73,21.645,-35.277
101.450882,15.61,25.298,-39.467
101.461559,20.02,28.144,-41.097
101.472236,24.15,30.873,-40.047
101.482913,26.6,32.353,-38.365
101.49359,29.19,34.049,-36.289
101.504267,31.57,35.326,-33.86
101.514944,33.67,35.72,-30.45
101.525621,35.7,35.169,-25.714
101.536308,36.89,34.639,-19.481
101.546995,36.75,33.748,-12.814
101.557682,34.86,32.747,-5.527
101.568369,31.15,31.248,2.169
101.579056,27.23,29.708,9.29
101.589743,22.33,28.306,15.227
101.60043,17.36,26.616,19.975
101.611117,11.55,25.339,23.588
101.621804,7.21,23.563,26.403
101.632491,2.45,21.317,27.855
101.643178,-1.47,18.665,28.382
101.65384,-4.76,16.305,27.255
101.664502,-8.05,14.054,25.508
101.675164,-10.22,12.391,23.651
101.685826,-11.55,10.136,21.121
101.696488,-13.3,7.926,18.741
101.70715,-15.54,5.683,16.142
101.717812,-17.43,4.284,13.194
101.728474,-20.37,3.404,10.125
101.739136,-23.52,3.261,6.901
101.749798,-25.9,3.399,3.3
101.76046,-27.86,4.363,-0.155
101.771122,-29.82,5.798,-3.456
101.781784,-31.01,8.093,-6.392
101.79243,-32.62,10.696,-9.06
101.803076,-33.18,13.335,-11.936
101.813722,-33.46,16.721,-14.608
101.824368,-34.16,20.703,-15.825
101.835014,-35.14,24.587,-15.283
101.84566,-36.68,28.18,-14.294
101.856306,-38.08,31.404,-13.228
101.866952,-38.92,35.135,-12.214
101.877598,-38.29,39.275,-10.703
101.888244,-36.26,43.545,-9.523
101.89889,-32.9,48.047,-7.237
101.909536,-29.05,52.183,-4.091
101.920194,-23.73,56.21,-0.324
101.930852,-16.94,60.33,0.9
101.94151,-12.04,63.404,2.011
101.952168,-7.63,66.649,5.781
101.962826,-5.11,68.672,8.413
101.973484,-3.5,70.335,10.27
101.984142,-3.01,71.568,12.548
101.9948,-4.27,71.504,14.527
102.005458,-4.69,70.101,16.839
102.016116,-5.11,67.271,17.975
102.026774,-4.55,63.115,20.582
102.037432,-5.32,58.128,27.095
102.04812,-6.16,52.939,34.355
102.058808,-6.51,49.18,36.322
102.069496,-5.11,46.495,34.214
102.080184,-2.17,44.703,31.481
102.090872,0.98,44.187,27.552
102.10156,3.5,43.428,21.376
102.112248,5.88,42.012,15.298
102.122936,7.77,40.113,10.343
102.133624,9.03,36.719,6.617
102.144312,9.59,33.515,3.422
102.155,9.87,30.644,0.357
102.165688,9.38,27.776,-3.134
102.176363,8.89,25.229,-6.427
102.187038,7.91,23.741,-9.674
102.197713,7.28,22.033,-11.681
102.208388,5.95,20.646,-13.49
102.219063,4.69,18.813,-14.382
102.229738,3.15,17.382,-13.923
102.240413,1.26,15.598,-12.674
102.251088,-0.7,13.761,-10.723
102.261763,-1.89,11.71,-9.166
102.272438,-3.08,9.759,-7.377
102.283113,-3.85,8.592,-5.593
102.293788,-3.22,7.939,-4.713
102.304463,-3.43,7.424,-5.017
102.315123,-3.15,7.724,-5.106
102.325783,-3.08,8.344,-4.997
102.336443,-3.08,8.815,-4.843
102.347103,-3.64,9.391,-4.884
102.357763,-3.71,9.524,-5.642
102.368423,-4.83,9.37,-6.38
102.379083,-7.42,9.893,-6.927
102.389743,-10.29,11.097,-7.71
102.400403,-12.88,13.121,-9.912
102.411063,-16.24,14.584,-13.777
102.421723,-19.6,15.192,-14.807
102.432383,-21.56,15.521,-14.251
102.443043,-22.89,15.014,-14.199
102.453705,-24.78,14.215,-13.7
102.464367,-25.9,14.158,-12.572
102.475029,-27.16,14.815,-12.67
102.485691,-26.46,15.273,-13.655
102.496353,-25.9,13.708,-13.647
102.507015,-25.48,10.728,-7.633
102.517677,-24.36,8.532,0.794
102.528339,-21.91,7.259,2.773
102.539001,-17.92,6.651,2.594
102.549663,-12.53,6.176,4.074
102.560325,-7.77,7.661,5.331
102.570987,-3.5,10.827,3.899
102.581671,2.17,14.752,-1.024
102.592355,7.77,16.929,-6.113
102.603039,12.32,16.418,-6.843
102.613723,15.33,14.009,-5.277
102.624407,17.71,10.4,-4.563
102.635091,22.19,2.278,-3.65
102.645775,23.31,-1.72,-1.938
102.656459,23.66,-6.362,-0.198
102.667143,22.96,-12.08,1.993
102.677827,21.14,-17.914,5.655
102.688511,18.97,-23.874,10.433
102.699195,15.96,-28.48,14.383
102.709948,12.18,-31.578,17.035
102.720701,8.54,-34.27,19.404
102.731454,4.27,-36.009,20.803
102.742207,-0.21,-37.165,21.31
102.75296,-4.69,-37.339,21.493
102.763713,-9.1,-36.176,20.134
102.774466,-12.74,-34.388,18.459
102.785219,-15.75,-32.357,16.614
102.795972,-18.2,-30.033,14.322
102.806725,-19.53,-27.467,11.861
102.817478,-20.02,-24.771,9.066
102.828231,-20.58,-22.666,6.807
102.83905,-20.93,-20.55,4.48
102.849869,-19.95,-18.551,2.415
102.860688,-20.02,-16.727,0.534
102.871507,-19.67,-15.433,-1.158
102.882326,-18.97,-14.278,-2.873
102.893145,-18.2,-13.248,-4.682
102.903964,-18.27,-12.093,-6.397
102.914783,-17.08,-10.236,-8.06
102.925602,-16.31,-8.038,-10.445
102.936421,-15.19,-5.902,-12.484
102.94724,-14.91,-3.429,-14.821
102.958059,-16.45,-1.515,-16.402
102.968952,-18.62,0.095,-17.469
