Time,AccelerometerX,AccelerometerY,AccelerometerZ
62.00656,-0.039,-9.637,-1.819
62.016264,-0.157,-9.63,-1.857
62.025968,-0.196,-9.599,-1.812
62.035688,-0.275,-9.592,-1.851
62.045408,-0.314,-9.599,-1.812
62.055128,-0.392,-9.651,-1.742
62.064848,-0.392,-9.605,-1.773
62.074568,-0.392,-9.658,-1.703
62.084288,-0.392,-9.594,-1.612
62.094008,-0.392,-9.555,-1.605
62.103728,-0.314,-9.639,-1.58
62.113448,-0.235,-9.646,-1.542
62.123168,-0.118,-9.685,-1.548
62.132888,0,-9.653,-1.503
62.142608,0.157,-9.653,-1.503
62.152328,0.314,-9.73,-1.517
62.162044,0.51,-9.846,-1.537
62.17176,0.667,-10.001,-1.564
62.181476,0.863,-10.148,-1.63
62.191192,1.02,-10.264,-1.651
62.200908,1.216,-10.31,-1.619
62.210624,1.412,-10.208,-1.521
62.22034,1.608,-10.144,-1.43
62.230056,1.726,-10.273,-1.373
62.239772,1.844,-10.86,-1.437
62.249488,1.804,-11.555,-1.559
62.259204,1.726,-11.832,-1.569
62.26892,1.804,-11.782,-1.4
62.278636,1.804,-11.648,-1.257
62.288352,1.648,-11.437,-1.1
62.298048,1.491,-11.085,-0.839
62.307744,1.334,-10.841,-0.637
62.31744,1.138,-10.714,-0.455
62.327136,0.785,-10.755,-0.223
62.336832,0.549,-10.666,-0.049
62.346528,0.353,-10.564,0.049
62.356224,0.196,-10.487,0.063
62.36592,0.235,-10.3,0.136
62.375616,0.275,-10.044,0.26
62.385312,0.353,-9.741,0.354
62.395008,0.196,-9.555,0.426
62.404704,0.078,-9.453,0.524
62.4144,0.039,-9.389,0.615
62.424096,-0.078,-9.441,0.685
62.433782,-0.078,-9.519,0.672
62.443468,-0.039,-9.621,0.574
62.453154,0.078,-9.744,0.592
62.46284,0.157,-9.776,0.547
62.472526,0.314,-9.891,0.526
62.482212,0.431,-10.078,0.454
62.491898,0.392,-10.232,0.426
62.501584,0.314,-10.341,0.367
62.51127,0.275,-10.412,0.315
62.520956,0.275,-10.482,0.263
62.530642,0.314,-10.475,0.224
62.540328,0.392,-10.469,0.186
62.550014,0.471,-10.462,0.147
62.5597,0.51,-10.487,0.063
62.569397,0.549,-10.512,-0.021
62.579094,0.471,-10.589,-0.035
62.588791,0.392,-10.666,-0.049
62.598488,0.275,-10.66,-0.087
62.608185,0.157,-10.614,-0.119
62.617882,0.118,-10.537,-0.105
62.627579,0,-10.414,-0.124
62.637276,-0.039,-10.253,-0.135
62.646973,-0.078,-10.207,-0.167
62.65667,-0.118,-10.078,-0.224
62.666367,-0.118,-9.942,-0.319
62.676064,-0.157,-9.889,-0.389
62.685761,-0.157,-9.882,-0.428
62.695451,-0.196,-9.771,-0.608
62.705141,-0.118,-9.803,-0.653
62.714831,-0.078,-9.789,-0.73
62.724521,-0.039,-9.878,-0.905
62.734211,-0.039,-9.864,-0.983
62.743901,-0.039,-9.844,-1.098
62.753591,-0.039,-9.837,-1.137
62.763281,0,-9.862,-1.221
62.772971,0.039,-9.842,-1.337
62.782661,0.118,-9.873,-1.382
62.792351,0.275,-9.821,-1.453
62.802041,0.353,-9.808,-1.53
62.811731,0.51,-9.801,-1.569
62.821421,0.588,-9.71,-1.632
62.831107,0.706,-9.696,-1.71
62.840793,0.745,-9.644,-1.78
62.850479,0.824,-9.592,-1.851
62.860165,0.863,-9.571,-1.967
62.869851,0.902,-9.61,-1.973
62.879537,0.941,-9.617,-1.935
62.889223,0.981,-9.662,-1.903
62.898909,1.02,-9.624,-1.896
62.908595,1.02,-9.63,-1.857
62.918281,1.059,-9.599,-1.812
62.927967,1.02,-9.546,-1.882
62.937653,1.059,-9.508,-1.876
62.947339,1.02,-9.508,-1.876
62.957025,1.02,-9.469,-1.869
62.966703,1.02,-9.476,-1.83
62.976381,0.981,-9.546,-1.882
62.986059,0.941,-9.655,-1.942
62.995737,0.941,-9.733,-1.955
63.005415,0.863,-9.81,-1.969
63.015093,0.863,-9.796,-2.046
63.024771,0.863,-9.79,-2.085
63.034449,0.824,-9.751,-2.078
63.044127,0.863,-9.758,-2.039
63.053805,0.824,-9.68,-2.026
63.063483,0.824,-9.719,-2.032
63.073161,0.824,-9.642,-2.019
63.082839,0.824,-9.596,-2.051
63.092534,0.824,-9.61,-1.973
63.102229,0.902,-9.571,-1.967
63.111924,0.902,-9.487,-1.992
63.121619,0.981,-9.487,-1.992
63.131314,1.02,-9.417,-1.939
63.141009,1.02,-9.385,-1.894
63.150704,1.02,-9.301,-1.919
63.160399,0.981,-9.262,-1.912
63.170094,0.941,-9.385,-1.894
63.179789,0.824,-9.476,-1.83
63.189484,0.706,-9.458,-1.707
63.199179,0.588,-9.458,-1.707
63.208874,0.588,-9.767,-1.762
63.218559,0.706,-10.751,-2.055
63.228244,0.785,-12.037,-2.441
63.237929,0.706,-12.385,-2.502
63.247614,0.863,-12.198,-2.43
63.257299,1.177,-12.121,-2.416
63.266984,1.294,-12.019,-2.318
63.276669,1.255,-11.614,-2.128
63.286354,1.294,-11.08,-1.994
63.296039,1.294,-10.817,-1.907
63.305724,1.255,-10.708,-1.848
63.315409,1.138,-10.546,-1.86
63.325094,0.981,-10.371,-1.948
63.334779,0.785,-10.171,-1.953
63.344464,0.588,-9.933,-1.951
63.354161,0.392,-9.649,-1.98
63.363858,0.196,-9.526,-1.998
63.373555,-0.078,-9.326,-2.003
63.383252,-0.353,-9.165,-2.014
63.392949,-0.628,-9.049,-1.994
63.402646,-0.863,-8.933,-1.973
63.412343,-1.02,-8.81,-1.992
63.42204,-1.177,-8.733,-1.978
63.431737,-1.334,-8.572,-1.989
63.441434,-1.412,-8.424,-1.923
63.451131,-1.491,-8.262,-1.935
63.460828,-1.569,-8.185,-1.921
63.470525,-1.648,-8.153,-1.876
63.48022,-1.726,-8.122,-1.83
63.489915,-1.804,-8.097,-1.746
63.49961,-1.844,-8.131,-1.553
63.509305,-1.883,-8.197,-1.405
63.519,-1.961,-8.21,-1.328
63.528695,-2.079,-8.308,-1.226
63.53839,-2.197,-8.399,-1.162
63.548085,-2.314,-8.612,-1.08
63.55778,-2.432,-8.955,-0.942
63.567475,-2.432,-9.576,-0.812
63.57717,-2.432,-10.41,-0.601
63.586865,-2.393,-11.328,-0.364
63.59656,-2.354,-12.021,-0.048
63.606255,-2.275,-12.546,0.218
63.615927,-2.157,-12.843,0.324
63.625599,-2.001,-13.084,0.561
63.635271,-1.804,-13.034,0.729
63.644943,-1.648,-12.775,0.615
63.654615,-1.608,-12.446,0.554
63.664287,-1.53,-12.109,0.454
63.673959,-1.491,-11.759,0.277
63.683631,-1.491,-11.293,0.12
63.693303,-1.412,-10.846,-0.16
63.702975,-1.412,-10.412,-0.362
63.712647,-1.451,-10.055,-0.578
63.722319,-1.451,-9.692,-0.833
63.731991,-1.451,-9.451,-1.069
63.741663,-1.569,-9.249,-1.312
63.751318,-1.608,-9.099,-1.485
63.760973,-1.687,-8.935,-1.735
63.770628,-1.804,-8.862,-1.921
63.780283,-1.883,-8.874,-2.082
63.789938,-1.922,-8.931,-2.212
63.799593,-2.04,-9.026,-2.348
63.809248,-2.157,-9.09,-2.439
63.818903,-2.354,-9.153,-2.53
63.828558,-2.471,-9.133,-2.646
63.838213,-2.589,-9.158,-2.73
63.847868,-2.628,-9.19,-2.776
63.857523,-2.628,-9.106,-2.801
63.867178,-2.55,-8.983,-2.819
63.876833,-2.432,-8.906,-2.805
63.886507,-2.236,-8.874,-2.76
63.896181,-2.079,-8.828,-2.791
63.905855,-1.844,-8.853,-2.876
63.915529,-1.608,-8.769,-2.901
63.925203,-1.334,-8.724,-2.932
63.934877,-1.098,-8.608,-2.912
63.944551,-0.941,-8.531,-2.898
63.954225,-0.863,-8.544,-2.821
63.963899,-0.863,-8.622,-2.835
63.973573,-0.902,-8.867,-2.798
63.983247,-0.941,-9.126,-2.685
63.992921,-1.098,-9.333,-2.641
64.002595,-1.216,-9.54,-2.598
64.012266,-1.334,-9.694,-2.625
64.021937,-1.491,-9.946,-2.55
64.031608,-1.687,-10.14,-2.585
64.041279,-1.883,-10.244,-2.444
64.05095,-2.001,-10.251,-2.405
64.060621,-2.157,-10.226,-2.321
64.070292,-2.354,-10.149,-2.307
64.079963,-2.432,-10.11,-2.3
64.089634,-2.511,-10.033,-2.287
64.099305,-2.511,-9.955,-2.273
64.108976,-2.55,-9.917,-2.266
64.118647,-2.589,-9.819,-2.369
64.128318,-2.55,-9.703,-2.348
64.137989,-2.55,-9.658,-2.38
64.147665,-2.471,-9.567,-2.444
64.157341,-2.511,-9.444,-2.462
64.167017,-2.471,-9.392,-2.532
64.176693,-2.393,-9.308,-2.557
64.186369,-2.432,-9.269,-2.551
64.196045,-2.393,-9.269,-2.551
64.205721,-2.354,-9.262,-2.589
64.215397,-2.393,-9.224,-2.582
64.225073,-2.354,-9.301,-2.596
64.234749,-2.314,-9.34,-2.603
64.244425,-2.275,-9.378,-2.61
64.254101,-2.236,-9.526,-2.675
64.263777,-2.197,-9.635,-2.735
64.273453,-2.197,-9.712,-2.748
64.283149,-2.157,-9.758,-2.716
64.292845,-2.197,-9.821,-2.807
64.302541,-2.157,-10.244,-3.121
64.312237,-2.079,-11.408,-3.525
64.321933,-2.157,-11.819,-3.677
64.331629,-2.275,-11.246,-3.536
64.341325,-2.118,-11.033,-3.618
64.351021,-1.922,-11.174,-3.723
64.360717,-1.844,-11.31,-3.627
64.370413,-1.648,-10.846,-3.546
64.380109,-1.451,-10.133,-3.3
64.389805,-1.334,-9.503,-3.03
64.399501,-1.334,-9.008,-2.903
64.409197,-1.412,-8.603,-2.712
64.41888,-1.451,-8.231,-2.567
64.428563,-1.608,-7.954,-2.558
64.438246,-1.804,-7.76,-2.523
64.447929,-1.961,-7.658,-2.426
64.457612,-2.079,-7.504,-2.399
64.467295,-2.157,-7.42,-2.424
64.476978,-2.157,-7.426,-2.385
64.486661,-2.197,-7.522,-2.521
64.496344,-2.04,-7.638,-2.542
64.506027,-1.804,-7.831,-2.576
64.51571,-1.608,-8.017,-2.648
64.525393,-1.255,-8.397,-2.755
64.535076,-0.824,-8.815,-2.869
64.544759,-0.471,-9.272,-2.989
64.55445,-0.078,-9.683,-3.141
64.564141,0.235,-10.051,-3.087
64.573832,0.51,-10.346,-3.218
64.583523,0.824,-10.578,-3.259
64.593214,1.098,-10.669,-3.196
64.602905,1.412,-10.605,-3.105
64.612596,1.687,-10.594,-2.943
64.622287,1.922,-10.512,-2.73
64.631978,2.118,-10.469,-2.523
64.641669,2.157,-10.419,-2.355
64.65136,2.04,-10.376,-2.148
64.661051,1.844,-10.339,-1.903
64.670742,1.608,-10.328,-1.741
64.680433,1.373,-10.401,-1.555
64.690124,1.02,-10.53,-1.498
64.699815,0.628,-10.582,-1.428
64.709506,0.314,-10.589,-1.389
64.719197,0.157,-10.519,-1.337
64.728888,-0.157,-10.417,-1.239
64.738579,-0.392,-10.339,-1.226
64.74827,-0.588,-10.146,-1.192
64.757961,-0.745,-10.017,-1.248
64.767652,-0.863,-9.823,-1.214
64.777343,-0.941,-9.624,-1.219
64.787034,-1.059,-9.487,-1.314
64.796725,-1.098,-9.389,-1.417
64.806416,-1.138,-9.401,-1.578
64.816128,-1.059,-9.405,-1.778
64.82584,-1.059,-9.392,-1.855
64.835552,-1.02,-9.41,-1.978
64.845264,-1.02,-9.39,-2.094
64.854976,-0.902,-9.421,-2.139
64.864688,-0.745,-9.485,-2.23
64.8744,-0.667,-9.549,-2.321
64.884112,-0.51,-9.567,-2.444
64.893824,-0.392,-9.599,-2.489
64.903536,-0.275,-9.553,-2.521
64.913248,-0.157,-9.476,-2.507
64.92296,-0.039,-9.392,-2.532
64.932672,0.118,-9.276,-2.512
64.942401,0.314,-9.256,-2.628
64.95213,0.471,-9.269,-2.551
64.961859,0.628,-9.346,-2.564
64.971588,0.785,-9.353,-2.526
64.981317,0.981,-9.385,-2.571
64.991046,1.138,-9.399,-2.494
65.000775,1.294,-9.36,-2.487
65.010504,1.491,-9.244,-2.466
65.020233,1.687,-9.135,-2.407
65.029962,1.883,-9.187,-2.337
65.039691,2.001,-9.303,-2.357
65.04942,2.118,-9.458,-2.385
65.059149,2.157,-9.574,-2.405
65.068878,2.236,-9.735,-2.394
65.078617,2.314,-9.896,-2.382
65.088356,2.314,-10.019,-2.364
65.098095,2.314,-10.065,-2.332
65.107834,2.275,-10.103,-2.339
65.117573,2.275,-10.078,-2.255
65.127312,2.275,-9.924,-2.228
65.137051,2.236,-9.737,-2.155
65.14679,2.236,-9.621,-2.135
65.156529,2.197,-9.505,-2.114
65.166268,2.118,-9.499,-2.153
65.176007,2.001,-9.537,-2.16
65.185746,1.961,-9.608,-2.212
65.195485,1.922,-9.64,-2.257
65.205224,1.922,-9.665,-2.341
65.214946,2.001,-9.83,-2.53
65.224668,2.04,-10.576,-2.821
65.23439,2.079,-11.676,-3.134
65.244112,1.883,-12.146,-3.177
65.253834,1.726,-11.903,-2.975
65.263556,1.765,-11.664,-2.973
65.273278,1.608,-11.594,-2.921
65.283,1.373,-11.312,-2.712
65.292722,1.216,-10.837,-2.469
65.302444,1.138,-10.317,-2.257
65.312166,0.941,-9.824,-1.891
65.321888,0.667,-9.324,-1.564
65.33161,0.353,-8.817,-1.276
65.341332,0.157,-8.381,-1.04
65.351039,-0.118,-8.215,-0.851
65.360746,-0.235,-8.53,-0.867
65.370453,-0.314,-9.058,-1.039
65.38016,-0.471,-9.405,-1.101
65.389867,-0.549,-9.437,-1.146
65.399574,-0.628,-9.514,-1.16
65.409281,-0.588,-9.785,-1.208
65.418988,-0.628,-10.126,-1.307
65.428695,-0.628,-10.557,-1.344
65.438402,-0.628,-10.919,-1.328
65.448109,-0.549,-11.132,-1.246
65.457816,-0.471,-11.153,-1.13
65.467523,-0.431,-11.18,-0.976
65.47723,-0.353,-11.232,-0.905
65.486952,-0.314,-11.291,-0.796
65.496674,-0.431,-11.246,-0.828
65.506396,-0.392,-11.085,-0.839
65.516118,-0.392,-10.885,-0.844
65.52584,-0.431,-10.716,-0.894
65.535562,-0.392,-10.548,-0.944
65.545284,-0.392,-10.412,-1.039
65.555006,-0.353,-10.205,-1.082
65.564728,-0.314,-9.914,-1.151
65.57445,-0.314,-9.708,-1.194
65.584172,-0.275,-9.487,-1.314
65.593894,-0.314,-9.28,-1.358
65.603616,-0.314,-9.169,-1.537
65.613324,-0.353,-9.033,-1.633
65.623032,-0.431,-8.921,-1.812
65.63274,-0.51,-8.831,-1.876
65.642448,-0.667,-8.958,-2.057
65.652156,-0.785,-9.067,-2.117
65.661864,-0.863,-8.937,-2.173
65.671572,-0.824,-8.899,-2.167
65.68128,-0.785,-8.931,-2.212
65.690988,-0.745,-9.015,-2.187
65.700696,-0.667,-9.31,-2.319
65.710404,-0.667,-9.331,-2.203
65.720112,-0.549,-9.106,-2.123
65.72982,-0.51,-8.919,-2.051
65.739528,-0.431,-9.042,-2.032
65.749213,-0.431,-9.224,-1.905
65.758898,-0.392,-9.301,-1.919
65.768583,-0.353,-9.269,-1.873
65.778268,-0.353,-9.237,-1.828
65.787953,-0.314,-9.321,-1.803
65.797638,-0.314,-9.662,-1.903
65.807323,-0.392,-9.708,-1.871
65.817008,-0.353,-9.746,-1.878
65.826693,-0.431,-9.849,-1.976
65.836378,-0.628,-10.042,-2.01
65.846063,-0.785,-9.496,-1.714
65.855748,-0.745,-9.969,-2.196
65.865433,-0.863,-10.074,-2.055
65.875118,-0.785,-10.021,-2.126
65.88482,-0.706,-9.86,-2.137
65.894522,-0.706,-9.73,-2.194
65.904224,-0.667,-9.86,-2.137
65.913926,-0.588,-10.239,-2.244
65.923628,-0.667,-9.899,-2.144
65.93333,-0.471,-9.892,-2.182
65.943032,-0.314,-9.949,-2.312
65.952734,-0.196,-10.451,-2.4
65.962436,-0.157,-11.035,-2.703
65.972138,-0.157,-11.498,-2.784
65.98184,-0.235,-10.426,-2.316
65.991542,-0.078,-10.769,-2.855
66.001244,-0.235,-10.88,-2.675
66.010949,-0.275,-11.351,-2.718
66.020654,-0.196,-11.453,-2.816
66.030359,0.078,-11.58,-2.998
66.040064,0.392,-11.826,-2.961
66.049769,0.51,-11.369,-2.841
66.059474,0.667,-10.694,-2.603
66.069179,0.706,-9.98,-2.357
66.078884,0.628,-9.421,-2.139
66.088589,0.471,-8.862,-1.921
66.098294,0.588,-8.283,-1.819
66.107999,0.863,-8.065,-1.701
66.117704,1.216,-7.981,-1.726
66.127409,1.569,-8.156,-1.637
66.137114,1.883,-8.478,-1.614
66.146805,2.079,-8.615,-1.519
66.156496,2.157,-8.417,-1.285
66.166187,2.314,-8.167,-1.121
66.175878,2.55,-8.683,-1.133
66.185569,2.628,-9.296,-1.042
66.19526,2.746,-9.664,-0.987
66.204951,2.981,-9.812,-1.053
66.214642,3.099,-9.889,-1.067
66.224333,3.06,-9.994,-0.926
66.234024,2.864,-9.994,-0.926
66.243715,2.746,-10.285,-0.858
66.253406,2.589,-10.537,-0.782
66.263097,2.393,-10.596,-0.673
66.272788,2.432,-10.603,-0.635
66.282458,2.393,-10.701,-0.533
66.292128,2.432,-10.798,-0.43
66.301798,2.314,-10.791,-0.469
66.311468,2.314,-10.882,-0.405
66.321138,2.275,-10.966,-0.38
66.330808,2.197,-10.78,-0.308
66.340478,2.118,-10.516,-0.221
66.350148,2.118,-10.239,-0.212
66.359818,2.079,-10.078,-0.224
66.369488,1.883,-9.923,-0.196
66.379158,1.608,-9.717,-0.24
66.388828,1.255,-9.58,-0.335
66.398498,0.981,-9.528,-0.405
66.408168,0.745,-9.553,-0.489
66.417821,0.667,-9.526,-0.644
66.427474,0.745,-9.498,-0.799
66.437127,0.863,-9.471,-0.953
66.44678,0.981,-9.426,-0.985
66.456433,1.177,-9.38,-1.017
66.466086,1.334,-9.335,-1.049
66.475739,1.491,-9.251,-1.074
66.485392,1.687,-9.212,-1.067
66.495045,1.765,-9.187,-0.983
66.504698,1.844,-9.194,-0.944
66.514351,1.961,-9.246,-0.874
66.524004,2.118,-9.324,-0.887
66.533657,2.157,-9.408,-0.862
66.54331,2.236,-9.601,-0.896
66.552972,2.157,-9.776,-0.808
66.562634,2.197,-9.937,-0.796
66.572296,2.157,-9.944,-0.758
66.581958,2.157,-9.905,-0.751
66.59162,2.118,-9.937,-0.796
66.601282,2.04,-9.835,-0.699
66.610944,1.961,-9.783,-0.769
66.620606,1.961,-9.789,-0.73
66.630268,1.922,-9.821,-0.776
66.63993,1.883,-9.853,-0.821
66.649592,1.922,-9.948,-0.958
66.659254,1.922,-9.903,-0.989
66.668916,2.001,-9.942,-0.996
66.678575,2.079,-9.858,-1.021
66.688234,2.079,-9.812,-1.053
66.697893,2.118,-9.76,-1.123
66.707552,2.079,-9.714,-1.155
66.717211,2.118,-9.553,-1.167
66.72687,2.118,-9.43,-1.185
66.736529,2.118,-9.308,-1.203
66.746188,2.157,-9.192,-1.183
66.755847,2.197,-9.005,-1.11
66.765506,2.314,-8.837,-1.16
66.775165,2.432,-8.799,-1.153
66.784824,2.511,-8.992,-1.187
66.794483,2.628,-9.487,-1.314
66.804142,2.667,-10.239,-1.566
66.813813,2.55,-10.51,-1.614
66.823484,2.707,-10.31,-1.619
66.833155,2.981,-10.328,-1.741
66.842826,3.06,-10.862,-1.875
66.852497,3.06,-11.364,-1.964
66.862168,3.06,-11.441,-1.978
66.871839,3.217,-11.157,-2.007
66.88151,3.491,-10.996,-2.019
66.891181,3.413,-11.067,-2.071
66.900852,3.217,-10.989,-2.057
66.910523,3.138,-10.667,-2.08
66.920194,3.06,-10.421,-2.116
66.929865,2.785,-10.055,-1.932
66.939536,2.55,-9.599,-1.812
66.9492,2.314,-9.251,-1.751
66.958864,2.001,-9.033,-1.633
66.968528,1.726,-9.085,-1.562
66.978192,1.451,-9.169,-1.537
66.987856,1.216,-9.215,-1.505
66.99752,1.02,-9.292,-1.519
67.007184,0.902,-9.299,-1.48
67.016848,0.745,-9.337,-1.487
67.026512,0.628,-9.376,-1.494
67.036176,0.588,-9.414,-1.501
67.04584,0.51,-9.492,-1.514
67.055504,0.431,-9.66,-1.464
67.065168,0.353,-9.737,-1.478
67.074832,0.353,-9.744,-1.439
67.084513,0.392,-9.751,-1.401
67.094194,0.314,-9.758,-1.362
67.103875,0.314,-9.796,-1.369
67.113556,0.314,-9.873,-1.382
67.123237,0.353,-9.899,-1.467
67.132918,0.431,-9.996,-1.364
67.142599,0.431,-10.035,-1.371
67.15228,0.431,-9.996,-1.364
67.161961,0.431,-9.958,-1.357
67.171642,0.392,-9.989,-1.403
67.181323,0.392,-10.035,-1.371
67.191004,0.392,-10.151,-1.392
67.200685,0.431,-10.298,-1.457
67.210375,0.431,-10.439,-1.562
67.220065,0.471,-10.537,-1.46
67.229755,0.431,-10.582,-1.428
67.239445,0.431,-10.537,-1.46
67.249135,0.471,-10.46,-1.446
67.258825,0.471,-10.26,-1.451
67.268515,0.471,-10.144,-1.43
67.278205,0.471,-10.008,-1.526
67.287895,0.51,-9.903,-1.667
67.297585,0.549,-9.805,-1.769
67.307275,0.549,-9.637,-1.819
67.316965,0.588,-9.501,-1.914
67.326655,0.667,-9.41,-1.978
67.336345,0.745,-9.319,-2.042
67.346031,0.863,-9.274,-2.073
67.355717,0.981,-9.176,-2.176
67.365403,1.098,-9.131,-2.207
67.375089,1.216,-8.969,-2.219
67.384775,1.373,-8.917,-2.289
67.394461,1.451,-8.833,-2.314
67.404147,1.53,-8.781,-2.385
67.413833,1.569,-8.922,-2.489
67.423519,1.569,-8.915,-2.528
67.433205,1.569,-8.972,-2.657
67.442891,1.569,-8.926,-2.689
67.452577,1.569,-8.958,-2.735
67.462263,1.451,-9.067,-2.794
67.471949,1.373,-9.092,-2.878
67.481665,1.294,-9.253,-2.866
67.491381,1.216,-9.31,-2.996
67.501097,1.138,-9.458,-3.062
67.510813,1.059,-9.574,-3.082
67.520529,1.02,-9.612,-3.089
67.530245,1.02,-9.644,-3.134
67.539961,0.981,-9.606,-3.128
67.549677,0.981,-9.606,-3.128
67.559393,0.941,-9.581,-3.044
67.569109,0.941,-9.612,-3.089
67.578825,0.941,-9.612,-3.089
67.588541,0.941,-9.69,-3.103
67.598257,1.02,-9.915,-3.182
67.607997,1.098,-10.231,-3.198
67.617737,1.098,-10.251,-3.082
67.627477,1.294,-10.135,-3.062
67.637217,1.451,-10.199,-3.153
67.646957,1.648,-10.76,-3.132
67.656697,1.765,-11.36,-3.118
67.666437,1.922,-11.458,-3.016
67.676177,2.157,-11.264,-2.982
67.685917,2.236,-10.808,-2.862
67.695657,2.393,-10.319,-2.696
67.705397,2.393,-9.978,-2.596
67.715137,2.432,-9.651,-2.419
67.724877,2.589,-9.356,-2.287
67.734617,2.824,-9.015,-2.187
67.744355,3.256,-8.783,-2.146
67.754093,3.687,-8.803,-2.03
67.763831,4.158,-8.862,-1.921
67.773569,4.472,-9.076,-1.839
67.783307,4.707,-9.185,-1.898
67.793045,4.825,-9.23,-1.867
67.802783,4.864,-9.315,-1.842
67.812521,4.786,-9.367,-1.771
67.822259,4.55,-9.342,-1.687
67.831997,4.119,-9.24,-1.589
67.841735,3.57,-9.151,-1.414
67.851473,3.099,-9.126,-1.33
67.861211,2.785,-9.178,-1.26
67.870949,2.471,-9.339,-1.248
67.88067,2.157,-9.392,-1.178
67.890391,1.961,-9.462,-1.23
67.900112,1.804,-9.417,-1.262
67.909833,1.687,-9.462,-1.23
67.919554,1.648,-9.501,-1.237
67.929275,1.765,-9.564,-1.328
67.938996,1.922,-9.571,-1.289
67.948717,2.118,-9.571,-1.289
67.958438,2.314,-9.494,-1.276
67.968159,2.432,-9.455,-1.269
67.97788,2.511,-9.424,-1.223
67.987601,2.511,-9.392,-1.178
67.997322,2.511,-9.353,-1.171
68.007043,2.471,-9.353,-1.171
68.016748,2.432,-9.43,-1.185
68.026453,2.393,-9.533,-1.283
68.036158,2.236,-9.571,-1.289
68.045863,2.157,-9.603,-1.335
68.055568,2.079,-9.635,-1.38
68.065273,2.001,-9.544,-1.444
68.074978,1.922,-9.492,-1.514
68.084683,1.844,-9.492,-1.514
68.094388,1.765,-9.524,-1.56
68.104093,1.765,-9.542,-1.682
68.113798,1.804,-9.658,-1.703
68.123503,1.844,-9.689,-1.748
68.133208,1.883,-9.703,-1.671
68.142913,1.922,-9.633,-1.619
68.152622,1.961,-9.594,-1.612
68.162331,2.079,-9.555,-1.605
68.17204,2.079,-9.601,-1.573
68.181749,2.04,-9.633,-1.619
68.191458,2.001,-9.601,-1.573
68.201167,1.961,-9.555,-1.605
68.210876,1.883,-9.44,-1.585
68.220585,1.844,-9.362,-1.571
68.230294,1.922,-9.278,-1.596
68.240003,2.04,-9.233,-1.628
68.249712,2.275,-9.233,-1.628
68.259421,2.471,-9.367,-1.771
68.26913,2.589,-9.437,-1.823
68.278831,2.55,-9.521,-1.798
68.288532,2.511,-9.483,-1.792
68.298233,2.432,-9.405,-1.778
68.307934,2.393,-9.335,-1.726
68.317635,2.471,-10.099,-2.139
68.327336,2.236,-9.567,-1.767
68.337037,2.354,-10.26,-2.128
68.346738,2.354,-11.282,-2.428
68.356439,2.118,-11.503,-2.307
68.36614,2.157,-11.007,-2.18
68.375841,2.471,-10.935,-2.366
68.385542,2.511,-11.546,-2.514
68.395243,2.314,-11.707,-2.502
68.404944,2.314,-11.514,-2.468
68.414636,2.393,-11.294,-2.589
68.424328,2.118,-11.062,-2.548
68.43402,1.844,-10.528,-2.414
68.443712,1.726,-9.91,-2.305
68.453404,1.648,-9.485,-2.23
68.463096,1.569,-9.067,-2.117
68.472788,1.451,-8.983,-2.142
68.48248,1.412,-9.099,-2.162
68.492172,1.373,-9.317,-2.28
68.501864,1.294,-9.394,-2.294
68.511556,1.294,-9.419,-2.378
68.521248,1.255,-9.592,-2.528
68.53094,1.177,-9.824,-2.569
68.540632,1.138,-9.933,-2.628
68.550334,1.138,-9.817,-2.607
68.560036,1.216,-9.54,-2.598
68.569738,1.138,-9.54,-2.598
68.57944,1.059,-9.49,-2.43
68.589142,1.098,-9.574,-2.405
68.598844,1.138,-9.426,-2.339
68.608546,1.177,-9.246,-2.228
68.618248,1.177,-9.201,-2.26
68.62795,1.255,-8.99,-2.103
68.637652,1.294,-8.912,-2.089
68.647354,1.334,-8.835,-2.076
68.657056,1.412,-8.758,-2.062
68.666758,1.451,-8.783,-2.146
68.676463,1.491,-8.853,-2.198
68.686168,1.648,-9.046,-2.232
68.695873,1.726,-9.194,-2.298
68.705578,1.804,-9.156,-2.292
68.715283,1.844,-9.201,-2.26
68.724988,1.922,-9.176,-2.176
68.734693,1.961,-9.201,-2.26
68.744398,2.079,-9.176,-2.176
68.754103,2.275,-9.181,-2.376
68.763808,2.236,-9.033,-2.31
68.773513,2.314,-8.949,-2.335
68.783218,2.236,-8.994,-2.303
68.792923,2.079,-8.962,-2.257
68.802628,2.04,-8.931,-2.212
68.812317,1.883,-8.758,-2.062
68.822006,1.844,-8.642,-2.042
68.831695,1.804,-8.642,-2.042
68.841384,1.804,-8.61,-1.996
68.851073,1.844,-8.476,-1.853
68.860762,1.883,-8.624,-1.919
68.870451,1.883,-8.953,-1.858
68.88014,1.922,-9.403,-2.017
68.889829,1.804,-9.803,-2.007
68.899518,1.608,-10.067,-2.094
68.909207,1.53,-10.299,-2.135
68.918896,1.491,-10.485,-2.207
68.928585,1.412,-10.639,-2.234
68.938274,1.334,-10.633,-2.273
68.947963,1.334,-10.439,-2.239
68.957652,1.294,-10.303,-2.335
68.967368,1.373,-10.11,-2.3
68.977084,1.648,-9.967,-2.435
68.9868,1.765,-10.044,-2.448
68.996516,2.001,-10.224,-2.559
69.006232,2.275,-10.526,-2.653
69.015948,2.471,-10.712,-2.725
69.025664,2.667,-10.899,-2.798
69.03538,2.785,-10.969,-2.85
69.045096,2.864,-10.969,-2.85
69.054812,2.903,-10.776,-2.816
69.064528,2.942,-10.544,-2.775
69.074256,2.942,-10.608,-2.866
69.083984,2.824,-10.917,-2.921
69.093712,2.707,-11.226,-2.975
69.10344,2.628,-11.335,-3.034
69.113168,2.628,-11.328,-3.073
69.122896,2.55,-10.942,-3.005
69.132624,2.511,-10.44,-2.916
69.142352,2.432,-9.828,-2.769
69.15208,2.314,-9.262,-2.589
69.161808,2.118,-8.767,-2.462
69.171536,1.961,-8.303,-2.38
69.181264,1.883,-8.026,-2.371
69.190992,1.922,-7.833,-2.337
69.20072,1.961,-7.967,-2.48
69.210458,2.079,-8.251,-2.451
69.220196,2.118,-8.54,-2.621
69.229934,2.197,-8.706,-2.81
69.239672,2.354,-8.776,-2.862
69.24941,2.432,-8.892,-2.882
69.259148,2.471,-8.924,-2.928
69.268886,2.55,-8.994,-2.98
69.278624,2.628,-9.072,-2.994
69.288362,2.628,-9.156,-2.969
69.2981,2.707,-9.272,-2.989
69.307838,2.785,-9.44,-2.939
69.317576,2.864,-9.51,-2.991
69.327314,2.864,-9.556,-2.96
69.337036,2.864,-9.64,-2.935
69.346758,2.824,-9.615,-2.85
69.35648,2.667,-9.544,-2.798
69.366202,2.589,-9.351,-2.764
69.375924,2.511,-9.249,-2.666
69.385646,2.393,-9.126,-2.685
69.395368,2.236,-9.017,-2.626
69.40509,2.157,-9.017,-2.626
69.414812,2.079,-8.972,-2.657
69.424534,1.922,-8.901,-2.605
69.434256,1.804,-8.753,-2.539
69.443978,1.648,-8.438,-2.523
69.4537,1.569,-8.206,-2.483
69.463422,1.412,-8.038,-2.533
69.47315,1.255,-8.135,-2.43
69.482878,1.177,-8.199,-2.521
69.492606,1.138,-8.424,-2.601
69.502334,1.138,-8.572,-2.667
69.512062,1.177,-8.751,-2.778
69.52179,1.216,-8.828,-2.791
69.531518,1.255,-8.803,-2.707
69.541246,1.255,-8.708,-2.571
69.550974,1.294,-8.683,-2.487
69.560702,1.373,-8.742,-2.378
69.57043,1.53,-8.91,-2.328
69.580158,1.726,-9.194,-2.298
69.589886,1.961,-9.465,-2.346
69.599596,2.118,-9.749,-2.316
69.609306,2.275,-9.826,-2.33
69.619016,2.511,-9.767,-2.439
69.628726,2.824,-9.735,-2.394
69.638436,3.02,-9.619,-2.373
69.648146,3.334,-9.521,-2.476
69.657856,3.57,-9.483,-2.469
69.667566,3.727,-9.431,-2.539
69.677276,3.883,-9.34,-2.603
69.686986,4.001,-9.203,-2.698
69.696696,4.04,-9.197,-2.737
69.706406,4.08,-9.19,-2.776
69.716116,4.08,-9.208,-2.898
69.725826,4.08,-9.297,-3.073
69.735543,4.08,-9.508,-3.23
69.74526,4.04,-9.828,-3.446
69.754977,4.04,-10.324,-3.573
69.764694,4.04,-10.799,-3.816
69.774411,4.08,-11.049,-3.98
69.784128,4.158,-11.021,-4.134
69.793845,4.236,-11.008,-4.211
69.803562,4.197,-10.846,-4.223
69.813279,4.158,-10.344,-4.134
69.822996,4.08,-9.688,-4.018
69.832713,3.923,-8.967,-3.812
69.84243,3.609,-8.349,-3.703
69.852147,3.334,-7.783,-3.523
69.861867,3.177,-7.463,-3.307
69.871587,2.903,-7.34,-3.326
69.881307,2.746,-7.604,-3.412
69.891027,2.55,-7.997,-3.441
69.900747,2.511,-8.383,-3.51
69.910467,2.511,-8.679,-3.641
69.920187,2.511,-8.949,-3.689
69.929907,2.55,-9.213,-3.775
69.939627,2.589,-9.406,-3.809
69.949347,2.667,-9.483,-3.823
69.959067,2.707,-9.458,-3.739
69.968787,2.746,-9.349,-3.68
69.978507,2.824,-9.208,-3.575
69.988227,2.903,-8.983,-3.496
69.997928,3.02,-8.797,-3.423
70.007629,3.099,-8.579,-3.305
70.01733,3.06,-8.379,-3.31
70.027031,3.138,-8.263,-3.289
70.036732,3.217,-8.185,-3.276
70.046433,3.256,-8.192,-3.237
70.056134,3.295,-8.154,-3.23
70.065835,3.373,-8.083,-3.178
70.075536,3.452,-8.07,-3.255
70.085237,3.452,-8.101,-3.301
70.094938,3.413,-8.172,-3.353
70.104639,3.334,-8.204,-3.398
70.11434,3.295,-8.204,-3.398
70.124041,3.256,-8.204,-3.398
70.133713,3.295,-8.197,-3.437
70.143385,3.256,-8.204,-3.398
70.153057,3.295,-8.165,-3.391
70.162729,3.256,-8.158,-3.43
70.172401,3.177,-8.074,-3.455
70.182073,3.099,-7.997,-3.441
70.191745,3.099,-8.004,-3.403
70.201417,3.02,-8.01,-3.364
70.211089,2.981,-8.088,-3.378
70.220761,2.903,-8.024,-3.287
70.230433,2.824,-7.954,-3.235
70.240105,2.785,-7.89,-3.144
70.249777,2.667,-7.858,-3.098
70.259449,2.55,-7.942,-3.073
70.269103,2.354,-8.129,-3.146
70.278757,2.157,-8.258,-3.089
70.288411,2.04,-8.426,-3.039
70.298065,1.922,-8.703,-3.048
70.307719,1.804,-9.142,-3.046
70.317373,1.648,-9.535,-3.075
70.327027,1.569,-9.858,-3.053
70.336681,1.608,-10.019,-3.041
70.346335,1.608,-10.065,-3.009
70.355989,1.608,-10.078,-2.932
70.365643,1.687,-10.092,-2.855
70.375297,1.726,-10.169,-2.869
70.384951,1.804,-10.253,-2.844
70.394605,1.883,-10.433,-2.955
70.404269,2.001,-10.671,-2.957
70.413933,2.118,-10.903,-2.998
70.423597,2.157,-11.237,-3.137
70.433261,2.197,-11.623,-3.205
70.442925,2.236,-11.662,-3.211
70.452589,2.314,-11.276,-3.143
70.462253,2.432,-10.985,-3.212
70.471917,2.471,-10.939,-3.243
70.481581,2.511,-11.171,-3.284
70.491245,2.589,-11.164,-3.323
70.500909,2.667,-10.694,-3.28
70.510573,2.746,-9.812,-3.084
70.520237,2.864,-8.949,-3.012
70.529891,2.785,-8.351,-2.787
70.539545,2.746,-8.067,-2.817
70.549199,2.746,-8.254,-2.889
70.558853,2.707,-8.401,-2.955
70.568507,2.824,-8.967,-3.135
70.578161,2.824,-9.449,-3.339
70.587815,2.746,-9.726,-3.348
70.597469,2.628,-9.437,-3.178
70.607123,2.589,-8.974,-3.096
70.616777,2.707,-9.322,-3.157
70.626431,2.746,-9.721,-3.148
70.636085,2.746,-9.742,-3.032
70.645739,2.785,-9.478,-2.946
70.655393,2.903,-9.208,-2.898
70.665048,2.942,-9.306,-2.796
70.674703,2.981,-9.274,-2.751
70.684358,3.02,-9.183,-2.814
70.694013,3.099,-9.306,-2.796
70.703668,3.099,-9.506,-2.791
70.713323,3.099,-9.481,-2.707
70.722978,2.981,-9.287,-2.673
70.732633,2.942,-9.14,-2.607
70.742288,2.903,-9.024,-2.587
70.751943,2.864,-8.992,-2.541
70.761598,2.746,-8.894,-2.644
70.771253,2.667,-8.81,-2.669
70.780908,2.589,-8.772,-2.662
70.790563,2.432,-8.824,-2.592
70.800241,2.275,-8.572,-2.667
70.809919,2.157,-8.397,-2.755
70.819597,2.079,-8.288,-2.696
70.829275,2.001,-8.344,-2.826
70.838953,1.922,-8.369,-2.91
70.848631,1.844,-8.356,-2.987
70.858309,1.726,-8.222,-2.844
70.867987,1.726,-8.065,-3.055
70.877665,1.569,-8.265,-3.051
70.887343,1.412,-8.388,-3.032
70.897021,1.334,-8.258,-3.089
70.906699,1.334,-8.122,-3.185
70.916377,1.294,-8.045,-3.171
70.926065,1.255,-8.045,-3.171
70.935753,1.255,-7.897,-3.105
70.945441,1.255,-7.781,-3.085
70.955129,1.373,-7.82,-3.092
70.964817,1.451,-7.949,-3.035
70.974505,1.491,-8.219,-3.082
70.984193,1.53,-8.297,-3.096
70.993881,1.608,-8.342,-3.064
71.003569,1.648,-8.29,-3.135
71.013257,1.726,-8.483,-3.169
71.022945,1.765,-8.817,-3.307
71.032633,1.687,-9.101,-3.278
71.042321,1.726,-9.313,-3.434
71.052009,1.844,-9.622,-3.489
71.061706,1.844,-10.026,-3.68
71.071403,2.001,-10.36,-3.818
71.0811,2.001,-10.406,-3.787
71.090797,2.079,-10.072,-3.648
71.100494,2.197,-9.478,-3.623
71.110191,2.393,-10.16,-3.823
71.119888,2.393,-10.915,-3.836
71.129585,2.354,-11.199,-3.807
71.139282,2.471,-11.185,-3.884
71.148979,2.55,-11.224,-3.891
71.158676,2.55,-11.251,-3.736
71.168373,2.55,-11.121,-3.793
71.17807,2.55,-11.212,-3.73
71.187767,2.354,-10.794,-3.616
71.197452,2.197,-10.003,-3.357
71.207137,1.961,-9.212,-3.098
71.216822,1.569,-8.769,-2.901
71.226507,1.177,-8.751,-2.778
71.236192,0.902,-8.958,-2.735
71.245877,0.785,-9.101,-2.601
71.255562,0.588,-9.147,-2.569
71.265247,0.392,-9.212,-2.421
71.274932,0.118,-9.49,-2.43
71.284617,-0.157,-9.787,-2.323
71.294302,-0.431,-9.692,-2.187
71.303987,-0.588,-9.737,-2.155
71.313672,-0.628,-9.958,-2.035
71.323357,-0.588,-10.076,-1.816
71.333061,-0.392,-9.953,-1.835
71.342765,-0.235,-10.051,-1.732
71.352469,0.039,-10.18,-1.676
71.362173,0.235,-9.783,-1.446
71.371877,0.549,-9.744,-1.439
71.381581,0.706,-9.926,-1.312
71.391285,0.706,-9.908,-1.189
71.400989,0.667,-9.662,-1.226
71.410693,0.706,-9.778,-1.246
71.420397,0.628,-9.889,-1.067
71.430101,0.628,-9.798,-1.13
71.439805,0.51,-9.805,-1.092
71.449509,0.314,-9.742,-1.001
71.459192,0.235,-9.692,-0.833
71.468875,0.314,-9.523,-0.883
71.478558,0.588,-9.446,-0.869
71.488241,0.824,-9.358,-0.694
71.497924,1.098,-9.203,-0.667
71.507607,1.255,-9.139,-0.576
71.51729,1.294,-9.114,-0.492
71.526973,1.491,-9.23,-0.512
71.536656,1.53,-9.335,-0.371
71.546339,1.648,-9.451,-0.392
71.556022,1.883,-9.514,-0.483
71.565705,2.001,-9.553,-0.489
71.575388,2.04,-9.508,-0.521
71.585071,2.04,-9.346,-0.533
71.594754,1.961,-9.089,-0.408
71.604438,1.883,-8.985,-0.549
71.614122,1.765,-9.133,-0.615
71.623806,1.726,-9.183,-0.783
71.63349,1.765,-9.296,-1.042
71.643174,1.804,-9.539,-1.244
71.652858,1.804,-9.814,-1.492
71.662542,1.765,-10.058,-1.694
71.672226,1.569,-10.205,-1.76
71.68191,1.294,-10.219,-1.682
71.691594,1.098,-10.173,-1.714
71.701278,0.981,-10.103,-1.662
71.710962,0.941,-10.264,-1.651
71.720646,1.02,-10.708,-1.848
71.730352,1.138,-11.646,-2.173
71.740058,0.981,-12.337,-2.096
71.749764,0.863,-12.107,-1.816
71.75947,1.059,-11.412,-1.694
71.769176,1.02,-11.141,-1.646
71.778882,0.549,-11.035,-1.348
71.788588,0.275,-10.58,-0.989
71.798294,0.471,-9.976,-0.803
71.808,0.667,-9.423,-0.546
71.817706,0.902,-9.219,-0.351
71.827412,1.059,-9.426,-0.308
71.837118,1.255,-9.653,-0.149
71.846824,1.608,-9.841,0.017
71.85653,1.844,-10.048,0.06
71.866229,1.922,-10.378,0.122
71.875928,2.001,-10.65,0.313
71.885627,2.157,-11.025,0.406
71.895326,2.157,-11.228,0.649
71.905025,2.236,-11.325,0.751
71.914724,2.197,-11.416,0.815
71.924423,2.079,-11.507,0.879
71.934122,1.922,-11.559,0.949
71.943821,1.844,-11.482,0.963
71.95352,1.726,-11.366,0.983
71.963219,1.569,-11.275,0.92
71.972918,1.491,-11.1,0.831
71.982617,1.412,-10.925,0.742
71.992316,1.334,-10.712,0.66
72.002025,1.255,-10.498,0.579
72.011734,1.334,-10.273,0.658
72.021443,1.255,-9.975,0.551
72.031152,1.177,-9.769,0.508
72.040861,1.138,-9.562,0.465
72.05057,1.059,-9.369,0.499
72.060279,0.981,-9.155,0.417
72.069988,0.981,-8.935,0.297
72.079697,1.02,-8.798,0.201
72.089406,1.059,-8.637,0.19
72.099115,1.098,-8.501,0.094
72.108824,1.098,-8.358,-0.04
72.118533,1.02,-8.274,-0.065
72.128237,1.098,-8.274,-0.065
72.137941,1.216,-8.137,-0.16
72.147645,1.491,-8.099,-0.153
72.157349,1.922,-8.015,-0.178
72.167053,2.393,-7.905,-0.119
72.176757,2.942,-7.905,-0.119
72.186461,3.295,-7.867,-0.113
72.196165,3.53,-7.835,-0.067
72.205869,3.609,-7.88,-0.035
72.215573,3.727,-8.151,-0.083
72.225277,3.923,-8.512,-0.067
72.234981,4.04,-9.028,-0.078
72.244685,4.276,-9.403,0.015
72.254389,4.354,-9.726,0.038
72.26409,4.119,-10.107,0.17
72.273791,4.001,-10.475,0.224
72.283492,3.844,-10.696,0.345
72.293193,3.687,-10.819,0.363
72.302894,3.413,-10.987,0.413
72.312595,3.138,-10.993,0.451
72.322296,2.942,-10.909,0.426
72.331997,2.746,-10.755,0.454
72.341698,2.471,-10.632,0.435
72.351399,2.157,-10.594,0.442
72.3611,2.001,-10.921,0.265
72.370801,1.844,-11.725,0.083
72.380502,1.608,-12.196,0.04
72.390203,1.648,-12.273,0.027
72.399924,1.648,-11.982,-0.042
72.409645,1.569,-11.473,0.008
72.419366,1.255,-11.198,0.256
72.429087,0.706,-10.684,0.506
72.438808,0.314,-9.9,0.804
72.448529,-0.039,-9.205,0.926
72.45825,-0.275,-9.23,0.842
72.467971,-0.706,-9.855,0.772
72.477692,-1.02,-10.434,0.67
72.487413,-1.098,-10.621,0.597
72.497134,-1.216,-10.614,0.558
72.506855,-1.373,-10.705,0.622
72.516576,-1.608,-10.757,0.692
72.5263,-1.804,-10.673,0.667
72.536024,-1.922,-10.571,0.765
72.545748,-2.079,-10.455,0.785
72.555472,-2.157,-10.391,0.876
72.565196,-2.197,-10.43,0.869
72.57492,-2.236,-10.514,0.894
72.584644,-2.079,-10.63,0.874
72.594368,-1.883,-10.623,0.835
72.604092,-1.687,-10.616,0.797
72.613816,-1.451,-10.539,0.81
72.62354,-1.216,-10.378,0.799
72.633264,-0.902,-10.216,0.788
72.642988,-0.628,-10.055,0.776
72.652712,-0.392,-9.932,0.758
72.662446,-0.157,-9.662,0.806
72.67218,-0.039,-9.416,0.769
72.681914,0.118,-9.157,0.656
72.691648,0.314,-9.028,0.599
72.701382,0.431,-9.151,0.617
72.711116,0.588,-9.782,0.585
72.72085,0.706,-10.312,0.651
72.730584,0.785,-10.557,0.688
72.740318,0.902,-10.648,0.751
72.750052,1.02,-10.557,0.688
72.759786,1.059,-10.364,0.722
72.76952,1.02,-10.112,0.647
72.779254,0.941,-9.821,0.579
72.788988,0.863,-9.685,0.483
72.798701,0.785,-9.323,0.467
72.808414,0.628,-8.885,0.465
72.818127,0.628,-8.471,0.378
72.82784,0.471,-8.514,0.172
72.837553,0.275,-8.842,-0.006
72.847266,0.118,-8.783,-0.115
72.856979,0.118,-8.633,-0.287
72.866692,0.118,-8.778,-0.592
72.876405,0.039,-9.074,-0.724
72.886118,0,-9.31,-0.964
72.895831,-0.039,-9.444,-1.108
72.905544,-0.157,-9.624,-1.219
72.915257,-0.275,-9.803,-1.33
72.92497,-0.314,-9.758,-1.362
72.934693,-0.235,-9.526,-1.321
72.944416,-0.157,-9.621,-1.457
72.954139,-0.078,-10.714,-1.81
72.963862,-0.039,-11.862,-1.853
72.973585,-0.039,-12.191,-1.791
72.983308,0.196,-12.409,-1.909
72.993031,0.196,-12.359,-1.741
73.002754,0.118,-11.635,-1.335
73.012477,0.157,-10.703,-0.971
73.0222,0.118,-9.957,-0.68
73.031923,0.157,-9.819,-0.337
73.041646,0.314,-10.046,-0.178
73.051369,0.549,-10.498,-0.099
73.061062,0.785,-10.821,-0.076
73.070755,0.941,-11.073,-0.001
73.080448,1.098,-11.487,0.086
73.090141,1.177,-11.725,0.083
73.099834,1.334,-11.939,0.165
73.109527,1.451,-11.959,0.281
73.11922,1.53,-12.057,0.383
73.128913,1.726,-12.039,0.506
73.138606,1.844,-11.93,0.565
73.148299,1.961,-11.691,0.567
73.157992,1.961,-11.407,0.538
73.167685,1.883,-11.066,0.638
73.177378,1.765,-10.673,0.667
73.187071,1.569,-10.28,0.697
73.196764,1.412,-9.835,0.656
73.206447,1.255,-9.46,0.563
73.21613,1.138,-9.267,0.597
73.225813,0.941,-8.987,0.367
73.235496,0.785,-8.76,0.208
73.245179,0.588,-8.571,0.042
73.254862,0.431,-8.274,-0.065
73.264545,0.235,-7.976,-0.172
73.274228,0.118,-7.762,-0.253
73.283911,0,-7.549,-0.335
73.293594,-0.078,-7.483,-0.483
73.303277,-0.157,-7.54,-0.612
73.31296,-0.196,-7.674,-0.756
73.322643,-0.196,-8.008,-0.894
73.33231,-0.118,-8.433,-0.969
73.341977,-0.118,-8.753,-1.185
73.351644,-0.235,-8.992,-1.187
73.361311,-0.353,-8.953,-1.18
73.370978,-0.51,-8.76,-1.146
73.380645,-0.706,-8.553,-1.19
73.390312,-0.902,-8.487,-1.337
73.399979,-0.981,-8.544,-1.467
73.409646,-0.941,-8.671,-1.649
73.419313,-0.785,-8.806,-1.792
73.42898,-0.588,-8.887,-2.005
73.438647,-0.314,-9.208,-2.221
73.448314,-0.118,-9.83,-2.53
73.457981,-0.039,-10.312,-2.734
73.467648,0.039,-10.408,-2.871
73.477297,0.039,-10.503,-3.007
73.486946,-0.039,-10.703,-3.003
73.496595,-0.078,-10.569,-2.859
73.506244,-0.235,-10.249,-2.644
73.515893,-0.471,-10.449,-2.639
73.525542,-0.745,-11.678,-2.896
73.535191,-1.177,-12.716,-2.88
73.54484,-1.687,-12.628,-2.705
73.554489,-1.687,-12.762,-2.848
73.564138,-1.883,-12.891,-2.791
73.573787,-2.118,-12.314,-2.45
73.583436,-2.118,-11.246,-2.182
73.593085,-2.197,-9.896,-1.705
73.60275,-2.001,-9.401,-1.578
73.612415,-2.001,-9.396,-1.378
73.62208,-2.079,-9.564,-1.328
73.631745,-2.079,-9.803,-1.33
73.64141,-2.04,-9.817,-1.253
73.651075,-2.118,-9.753,-1.162
73.66074,-2.157,-10.21,-1.282
73.670405,-2.275,-10.764,-1.301
73.68007,-2.471,-11.041,-1.31
73.689735,-2.589,-10.978,-1.219
73.6994,-2.589,-10.953,-1.135
73.709065,-2.589,-10.966,-1.057
73.71873,-2.511,-11.005,-1.064
73.728396,-2.354,-10.966,-1.057
73.738062,-2.197,-10.766,-1.062
73.747728,-2.079,-10.58,-0.989
73.757394,-1.883,-10.387,-0.955
73.76706,-1.726,-10.162,-0.876
73.776726,-1.648,-9.982,-0.764
73.786392,-1.53,-9.803,-0.653
73.796058,-1.491,-9.655,-0.587
73.805724,-1.412,-9.578,-0.574
73.81539,-1.373,-9.539,-0.567
73.825056,-1.334,-9.378,-0.578
73.834722,-1.294,-9.248,-0.635
73.844388,-1.255,-9.08,-0.685
73.854054,-1.216,-8.899,-0.812
73.863714,-1.334,-8.703,-1.017
73.873374,-1.334,-8.605,-1.119
73.883034,-1.334,-8.451,-1.092
73.892694,-1.451,-8.399,-1.162
73.902354,-1.648,-8.508,-1.221
73.912014,-1.804,-8.849,-1.321
73.921674,-1.883,-9.21,-1.305
73.931334,-1.922,-9.178,-1.26
73.940994,-1.844,-9.03,-1.194
73.950654,-1.726,-8.721,-1.139
73.960314,-1.687,-8.444,-1.13
73.969974,-1.648,-8.237,-1.174
73.979634,-1.53,-8.319,-1.387
73.989294,-1.53,-8.362,-1.594
73.998939,-1.687,-8.083,-1.824
74.008584,-1.608,-8.001,-2.287
74.018229,-1.53,-8.267,-2.812
74.027874,-1.373,-8.554,-3.221
74.037519,-1.216,-8.801,-3.623
74.047164,-1.02,-9.01,-4.019
74.056809,-0.981,-8.944,-4.166
74.066454,-0.941,-8.647,-4.273
74.076099,-0.902,-8.549,-4.375
74.085744,-0.863,-8.947,-4.605
74.095389,-0.745,-10.258,-5.075
74.105034,-0.785,-11.262,-5.252
74.114679,-0.902,-10.865,-5.023
74.124324,-0.588,-10.176,-4.861
74.13399,-0.235,-10.267,-4.798
74.143656,-0.314,-10.297,-4.405
74.153322,-0.392,-9.631,-3.889
74.162988,-0.196,-9.015,-3.541
74.172654,-0.078,-9.165,-3.369
74.18232,-0.078,-9.785,-3.239
74.191986,0.157,-10.694,-3.28
74.201652,0.471,-11.339,-3.234
74.211318,0.824,-11.342,-2.996
74.220984,1.334,-11.253,-2.821
74.23065,1.687,-11.242,-2.659
74.240316,1.961,-11.314,-2.473
74.249982,2.157,-11.348,-2.28
74.259659,2.314,-11.317,-2.234
74.269336,2.432,-11.267,-2.066
74.279013,2.55,-11.062,-1.871
74.28869,2.589,-10.946,-1.85
74.298367,2.628,-10.721,-1.771
74.308044,2.589,-10.464,-1.646
74.317721,2.471,-10.278,-1.573
74.327398,2.197,-10.123,-1.546
74.337075,1.844,-9.969,-1.519
74.346752,1.491,-9.73,-1.517
74.356429,1.255,-9.453,-1.508
74.366106,1.059,-9.253,-1.512
74.375783,0.902,-8.93,-1.535
74.38546,0.785,-8.671,-1.649
74.395133,0.628,-8.478,-1.614
74.404806,0.353,-8.24,-1.612
74.414479,0.078,-8.099,-1.508
74.424152,-0.118,-8.015,-1.533
74.433825,-0.157,-7.899,-1.512
74.443498,-0.118,-7.86,-1.505
74.453171,-0.078,-7.769,-1.569
74.462844,0,-7.717,-1.64
74.472517,0.157,-7.665,-1.71
74.48219,0.235,-7.658,-1.749
74.491863,0.314,-7.728,-1.801
74.501536,0.314,-7.838,-1.86
74.511209,0.471,-7.947,-1.919
74.520882,0.549,-7.978,-1.964
74.53059,0.706,-8.01,-2.01
74.540298,0.941,-7.958,-2.08
74.550006,1.177,-8.151,-2.114
74.559714,1.373,-8.653,-2.203
74.569422,1.53,-8.983,-2.142
74.57913,1.687,-9.183,-2.137
74.588838,1.883,-9.415,-2.178
74.598546,2.04,-9.84,-2.253
74.608254,2.157,-10.335,-2.38
74.617962,2.275,-10.876,-2.475
74.62767,2.393,-11.178,-2.568
74.637378,2.511,-11.255,-2.582
74.647086,2.55,-11.114,-2.478
74.656812,2.471,-10.858,-2.353
74.666538,2.354,-10.773,-2.378
74.676264,2.197,-11.121,-2.439
74.68599,1.804,-12.08,-2.648
74.695716,1.334,-12.712,-2.68
74.705442,1.138,-13.021,-2.734
74.715168,1.138,-12.982,-2.727
74.724894,0.941,-12.687,-2.596
74.73462,0.667,-12.166,-2.384
74.744346,0.392,-11.273,-2.028
74.754072,0.157,-10.117,-1.585
74.763798,0.039,-9.235,-1.389
74.773524,-0.039,-9.319,-1.364
74.78325,-0.235,-9.617,-1.258
74.792984,-0.157,-10.042,-1.332
74.802718,-0.078,-10.692,-1.487
74.812452,-0.157,-11.064,-1.632
74.822186,-0.196,-11.064,-1.632
74.83192,-0.157,-11.082,-1.755
74.841654,-0.196,-11.205,-1.737
74.851388,-0.196,-11.057,-1.671
74.861122,-0.078,-10.632,-1.596
74.870856,0.039,-10.292,-1.496
74.88059,0.118,-10.028,-1.41
74.890324,0.196,-9.708,-1.194
74.900058,0.196,-9.283,-1.119
74.909792,0.196,-8.98,-1.026
74.919526,0.118,-8.794,-0.953
74.92926,0.039,-8.783,-0.792
74.939012,0,-8.887,-0.651
74.948764,-0.039,-9.042,-0.678
74.958516,0,-9.242,-0.674
74.968268,0.039,-9.371,-0.617
74.97802,0.235,-9.526,-0.644
74.987772,0.353,-9.596,-0.696
74.997524,0.471,-9.589,-0.735
75.007276,0.588,-9.505,-0.76
75.017028,0.588,-9.428,-0.746
75.02678,0.588,-9.344,-0.771
75.036532,0.588,-9.176,-0.821
75.046284,0.628,-9.053,-0.84
75.056036,0.588,-8.969,-0.865
75.065777,0.628,-8.962,-0.903
75.075518,0.628,-8.994,-0.949
75.085259,0.667,-9.019,-1.033
75.095,0.667,-8.974,-1.064
75.104741,0.628,-8.928,-1.096
75.114482,0.588,-8.844,-1.121
75.124223,0.51,-8.792,-1.192
75.133964,0.51,-8.849,-1.321
75.143705,0.431,-9.26,-1.473
75.153446,0.353,-9.376,-1.494
75.163187,0.431,-9.394,-1.617
75.172928,0.353,-9.521,-1.798
75.182669,0.314,-9.694,-1.948
75.19241,0.235,-10.067,-2.094
75.202157,0.157,-10.387,-2.31
75.211904,0.235,-10.798,-2.462
75.221651,0.314,-11.178,-2.568
75.231398,0.431,-11.223,-2.537
75.241145,0.51,-11.062,-2.548
75.250892,0.588,-11.21,-2.614
75.260639,0.588,-11.828,-2.723
75.270386,0.471,-12.08,-2.648
75.280133,0.51,-12.01,-2.596
75.28988,0.588,-11.83,-2.484
75.299627,0.471,-11.478,-2.223
75.309374,0.431,-11.228,-2.059
75.319121,0.314,-10.464,-1.646
75.328861,0.275,-9.405,-1.101
75.338601,0.314,-8.449,-0.653
75.348341,0.392,-8.199,-0.49
75.358081,0.471,-8.992,-0.51
75.367821,0.549,-9.701,-0.555
75.377561,0.824,-10.255,-0.573
75.387301,1.255,-10.751,-0.701
75.397041,1.648,-11.241,-0.628
75.406781,1.844,-11.571,-0.566
75.416521,2.001,-11.591,-0.451
75.426261,2.157,-11.496,-0.314
75.436001,2.157,-11.33,-0.126
75.445741,2.197,-11.15,-0.014
75.455481,2.157,-11.041,0.045
75.465205,2.118,-11.087,0.077
75.474929,2.04,-11.016,0.129
75.484653,1.961,-10.946,0.181
75.494377,1.844,-10.798,0.247
75.504101,1.648,-10.662,0.151
75.513825,1.412,-10.48,0.024
75.523549,1.255,-10.389,-0.039
75.533273,1.059,-10.285,-0.18
75.542997,0.902,-10.148,-0.276
75.552721,0.745,-9.935,-0.358
75.562445,0.588,-9.605,-0.419
75.572169,0.471,-9.289,-0.403
75.581893,0.314,-8.992,-0.51
75.591617,0.235,-8.694,-0.617
75.601352,0.196,-8.48,-0.699
75.611087,0.078,-8.305,-0.787
75.620822,0.039,-8.137,-0.837
75.630557,0,-8.008,-0.894
75.640292,-0.078,-7.878,-0.951
75.650027,-0.078,-7.858,-1.067
75.659762,-0.157,-7.922,-1.158
75.669497,-0.157,-7.908,-1.235
75.679232,-0.118,-7.947,-1.242
75.688967,-0.078,-7.933,-1.319
75.698702,-0.039,-7.958,-1.403
75.708437,0.039,-7.951,-1.442
75.718172,0.157,-8.137,-1.515
75.727905,0.314,-8.665,-1.687
75.737638,0.392,-9.103,-1.685
75.747371,0.51,-9.367,-1.771
75.757104,0.706,-9.637,-1.819
75.766837,0.745,-9.951,-2.073
75.77657,0.824,-10.414,-2.155
75.786303,0.824,-10.794,-2.262
75.796036,0.824,-10.973,-2.373
75.805769,0.824,-11.019,-2.341
75.815502,0.863,-10.858,-2.353
75.825235,0.863,-10.71,-2.287
75.834968,0.785,-10.717,-2.248
75.844701,0.824,-11.444,-2.416
75.854434,0.706,-12.519,-2.646
75.864153,0.51,-12.919,-2.636
75.873872,0.549,-13.15,-2.677
75.883591,0.549,-12.719,-2.641
75.89331,0.431,-11.716,-2.225
75.903029,0.275,-10.489,-1.73
75.912748,0.157,-9.171,-1.298
75.922467,0.157,-8.799,-1.153
75.932186,0,-9.385,-1.217
75.941905,-0.353,-10.248,-1.289
75.951624,-0.706,-10.764,-1.301
75.961343,-0.824,-10.873,-1.36
75.971062,-1.02,-11.028,-1.387
75.980781,-1.294,-11.273,-1.35
75.9905,-1.53,-11.564,-1.282
76.00019,-1.648,-11.571,-1.244
76.00988,-1.726,-11.385,-1.171
76.01957,-1.687,-11.16,-1.091
76.02926,-1.608,-10.973,-1.019
76.03895,-1.569,-10.896,-1.005
76.04864,-1.451,-10.864,-0.96
76.05833,-1.255,-10.748,-0.939
76.06802,-1.059,-10.651,-1.042
76.07771,-0.863,-10.412,-1.039
76.0874,-0.667,-10.212,-1.044
76.09709,-0.549,-9.998,-1.126
76.10678,-0.431,-9.876,-1.144
76.11647,-0.235,-9.637,-1.142
76.12616,-0.157,-9.353,-1.171
76.135857,0,-9.051,-1.078
76.145554,0.039,-8.676,-1.171
76.155251,0.157,-8.469,-1.215
76.164948,0.196,-8.262,-1.258
76.174645,0.275,-8.133,-1.315
76.184342,0.314,-8.112,-1.43
76.194039,0.314,-8.067,-1.462
76.203736,0.314,-7.962,-1.603
76.213433,0.275,-7.942,-1.719
76.22313,0.196,-8.058,-1.739
76.232827,0.118,-7.981,-1.726
76.242524,0.039,-7.924,-1.596
76.252221,-0.078,-7.769,-1.569
76.261917,-0.314,-7.653,-1.549
76.271613,-0.392,-7.576,-1.535
76.281309,-0.392,-7.847,-1.583
76.291005,-0.471,-8.567,-1.789
76.300701,-0.51,-9.031,-1.871
76.310397,-0.51,-9.396,-2.055
76.320093,-0.471,-9.794,-2.285
76.329789,-0.471,-10.469,-2.523
76.339485,-0.51,-11.28,-2.666
76.349181,-0.471,-11.453,-2.816
76.358877,-0.353,-11.857,-3.007
76.368573,-0.353,-11.523,-2.868
76.378269,-0.353,-10.483,-2.446
76.387965,0.118,-10.305,-2.773
76.397649,0.392,-11.173,-3.046
76.407333,0.392,-11.471,-2.939
76.417017,0.588,-11.71,-2.941
76.426701,0.745,-11.851,-3.046
76.436385,0.667,-11.607,-2.843
76.446069,0.51,-11.428,-2.732
76.455753,0.275,-10.562,-2.221
76.465437,0.157,-9.664,-1.664
76.475121,0.157,-9.024,-1.233
76.484805,0.157,-8.994,-0.949
76.494489,0.275,-9.646,-0.864
76.504173,0.51,-10.13,-0.83
76.513857,0.941,-10.685,-0.848
76.523541,1.334,-11.007,-0.826
76.533199,1.569,-11.337,-0.764
76.542857,1.648,-11.369,-0.81
76.552515,1.765,-11.207,-0.821
76.562173,1.883,-11.303,-0.957
76.571831,1.883,-11.585,-1.166
76.581489,1.922,-11.739,-1.194
76.591147,2.118,-11.932,-1.228
76.600805,2.314,-11.925,-1.266
76.610463,2.393,-11.623,-1.173
76.620121,2.511,-11.107,-1.162
76.629779,2.55,-10.848,-1.276
76.639437,2.471,-10.096,-1.023
76.649095,2.393,-9.676,-1.148
76.658753,2.197,-9.167,-1.099
76.668411,1.922,-8.778,-1.269
76.678057,1.608,-8.396,-1.401
76.687703,1.334,-8.04,-1.617
76.697349,1.098,-7.756,-1.646
76.706995,0.863,-7.388,-1.701
76.716641,0.628,-7.006,-1.833
76.726287,0.471,-6.645,-1.849
76.735933,0.314,-6.399,-1.885
76.745579,0.235,-6.301,-1.987
76.755225,0.157,-6.372,-2.04
76.764871,0.157,-6.688,-2.056
76.774517,0.157,-6.738,-2.224
76.784163,0.157,-6.79,-2.153
76.793823,0.196,-6.738,-2.224
76.803483,0.235,-7.131,-2.253
76.813143,0.353,-7.351,-2.133
76.822803,0.471,-7.551,-2.128
76.832463,0.667,-7.983,-2.164
76.842123,0.863,-8.962,-2.257
76.851783,1.059,-9.976,-2.157
76.861443,1.216,-10.551,-2.06
76.871103,1.412,-10.907,-1.844
76.880763,1.569,-11.248,-1.944
76.890423,1.569,-11.494,-1.907
76.900083,1.569,-11.855,-1.891
76.909743,1.451,-11.81,-1.923
76.919393,1.412,-11.662,-1.857
76.929043,1.216,-11.378,-1.887
76.938693,1.138,-11.262,-1.866
76.948343,0.941,-10.953,-1.812
76.957993,0.667,-10.696,-1.687
76.967643,0.431,-10.794,-1.585
76.977293,0.275,-11.939,-1.866
76.986943,-0.078,-13.114,-1.755
76.996593,-0.628,-13.039,-1.502
77.006243,-0.785,-13.477,-1.5
77.015893,-1.059,-13.53,-1.43
77.025543,-1.412,-13.609,-1.205
77.035193,-1.608,-13.007,-0.78
77.044843,-1.648,-11.553,-0.444
77.05451,-1.491,-10.637,-0.442
77.064177,-1.294,-10.448,-0.608
77.073844,-1.373,-10.48,-0.653
77.083511,-1.373,-10.671,-0.926
77.093178,-1.334,-10.798,-1.107
77.102845,-1.373,-11.348,-1.603
77.112512,-1.608,-10.964,-1.296
77.122179,-1.569,-10.814,-1.469
77.131846,-1.608,-10.51,-1.614
77.141513,-1.608,-10.387,-1.632
77.15118,-1.53,-10.092,-1.501
77.160847,-1.412,-9.724,-1.555
77.170514,-1.334,-9.562,-1.567
77.180178,-1.216,-9.412,-1.739
77.189842,-1.177,-9.233,-1.628
77.199506,-1.059,-8.942,-1.696
77.20917,-0.981,-8.581,-1.712
77.218834,-0.824,-8.324,-1.587
77.228498,-0.628,-7.74,-1.285
77.238162,-0.353,-7.949,-1.68
77.247826,-0.431,-8.285,-1.58
77.25749,-0.392,-8.442,-1.369
77.267154,-0.392,-8.453,-1.53
77.276818,-0.431,-8.433,-1.646
77.286482,-0.588,-8.442,-1.369
77.296146,-0.706,-8.315,-1.187
77.30581,-0.588,-8.012,-1.094
77.315461,-0.275,-7.865,-1.028
77.325112,0.078,-8.226,-1.012
77.334763,0.431,-8.24,-0.935
77.344414,0.745,-8.226,-1.012
77.354065,0.902,-8.408,-0.885
77.363716,0.981,-8.512,-0.744
77.373367,1.02,-8.746,-0.546
77.383018,1.216,-8.871,-0.29
77.392669,1.608,-9.098,-0.131
77.40232,1.961,-9.312,-0.049
77.411971,2.236,-9.435,-0.03
77.421622,2.471,-9.955,-0.242
77.431273,2.471,-9.937,-0.119
77.440924,2.628,-10.155,-0.237
77.450592,2.628,-10.353,-0.471
77.46026,2.55,-10.764,-0.623
77.469928,2.471,-11.291,-0.796
77.479596,2.314,-11.405,-1.055
77.489264,2.275,-11.603,-1.289
77.498932,2.001,-11.666,-1.38
77.5086,1.569,-11.435,-1.339
77.518268,1.177,-11.003,-1.303
77.527936,1.059,-10.642,-1.319
77.537604,0.941,-10.885,-1.521
77.547272,0.745,-11.38,-1.648
77.55694,0.745,-11.594,-1.566
77.566608,1.02,-11.657,-1.657
77.576298,0.981,-11.651,-1.696
77.585988,0.902,-11.966,-1.712
77.595678,0.588,-11.255,-1.228
77.605368,0.51,-10.053,-0.817
77.615058,0.51,-9.044,-0.44
77.624748,0.235,-8.794,-0.276
77.634438,-0.118,-9.235,-0.035
77.644128,-0.235,-9.746,0.154
77.653818,0,-10.216,0.11
77.663508,0.275,-10.694,0.106
77.673198,0.431,-11.146,0.186
77.682888,0.51,-11.521,0.279
77.692578,0.667,-11.618,0.381
77.702268,0.706,-11.639,0.497
77.711976,0.706,-11.621,0.62
77.721684,0.785,-11.571,0.788
77.731392,0.863,-11.514,0.917
77.7411,0.941,-11.482,0.963
77.750808,0.981,-11.398,0.938
77.760516,0.981,-11.314,0.913
77.770224,0.941,-11.184,0.856
77.779932,0.941,-10.939,0.82
77.78964,0.863,-10.725,0.738
77.799348,0.745,-10.55,0.649
77.809056,0.549,-10.369,0.522
77.818764,0.392,-10.11,0.408
77.828472,0.275,-9.773,0.308
77.83818,0.118,-9.43,0.169
77.847916,-0.039,-9.03,0.16
77.857652,-0.196,-8.642,-0.01
77.867388,-0.314,-8.383,-0.124
77.877124,-0.549,-8.092,-0.192
77.88686,-0.706,-8.033,-0.301
77.896596,-0.824,-7.903,-0.358
77.906332,-0.902,-7.844,-0.467
77.916068,-0.902,-7.824,-0.583
77.925804,-0.824,-7.81,-0.66
77.93554,-0.706,-7.803,-0.699
77.945276,-0.588,-7.906,-0.796
77.955012,-0.431,-7.937,-0.842
77.964748,-0.314,-7.931,-0.881
77.974506,-0.196,-7.917,-0.958
77.984264,-0.118,-8.033,-0.978
77.994022,-0.039,-8.226,-1.012
78.00378,0,-8.58,-1.035
78.013538,0.039,-8.658,-1.049
78.023296,0.235,-8.774,-1.069
78.033054,0.431,-8.967,-1.103
78.042812,0.588,-9.36,-1.133
78.05257,0.785,-9.778,-1.246
78.062328,0.981,-10.08,-1.339
78.072086,1.098,-10.28,-1.335
78.081844,1.138,-10.332,-1.264
78.091602,1.098,-10.385,-1.194
78.10136,0.941,-10.367,-1.071
78.111127,0.824,-10.714,-1.132
78.120894,0.706,-12.014,-1.441
78.130661,0.196,-13.266,-1.343
78.140428,-0.196,-13.784,-1.116
78.150195,-0.078,-14.461,-1.116
78.159962,-0.078,-14.4,-0.786
78.169729,-0.196,-14.082,-0.332
78.179496,-0.314,-13.209,0.14
78.189263,-0.392,-12.077,0.499
78.19903,-0.353,-11.677,0.49
78.208797,-0.706,-11.612,0.342
78.218564,-1.138,-11.475,0.247
78.228331,-1.334,-11.35,-0.01
78.238098,-1.648,-10.969,-0.142
78.247847,-2.001,-10.53,-0.144
78.257596,-2.275,-10.335,-0.349
78.267345,-2.628,-10.301,-0.542
78.277094,-2.942,-10.171,-0.598
78.286843,-3.06,-9.855,-0.583
78.296592,-3.177,-9.585,-0.535
78.306341,-3.177,-9.662,-0.549
78.31609,-3.138,-9.837,-0.46
78.325839,-3.02,-9.992,-0.487
78.335588,-2.746,-10.139,-0.553
78.345337,-2.511,-10.185,-0.521
78.355086,-2.275,-10.153,-0.476
78.364835,-2.04,-10.012,-0.371
78.374584,-1.804,-9.942,-0.319
78.384305,-1.569,-9.773,-0.369
78.394026,-1.334,-9.594,-0.258
78.403747,-1.059,-9.292,-0.165
78.413468,-0.745,-9.053,-0.162
78.423189,-0.431,-8.892,-0.174
78.43291,-0.196,-8.801,-0.237
78.442631,-0.078,-8.78,-0.353
78.452352,0.039,-8.728,-0.424
78.462073,0.118,-8.637,-0.487
78.471794,0.157,-8.54,-0.59
78.481515,0.118,-8.487,-0.66
78.491236,0.039,-8.383,-0.801
78.500957,0,-8.299,-0.826
78.510678,-0.118,-8.215,-0.851
78.520407,-0.196,-8.131,-0.876
78.530136,-0.353,-8.144,-0.799
78.539865,-0.431,-8.131,-0.876
78.549594,-0.51,-8.169,-0.883
78.559323,-0.628,-8.201,-0.928
78.569052,-0.667,-8.387,-1.001
78.578781,-0.667,-8.774,-1.069
78.58851,-0.706,-9.083,-1.124
78.598239,-0.667,-9.23,-1.189
78.607968,-0.628,-9.378,-1.255
78.617697,-0.549,-9.776,-1.485
78.627426,-0.51,-10.335,-1.703
78.637155,-0.392,-10.669,-1.841
78.64687,-0.118,-10.985,-1.857
78.656585,-0.039,-11.087,-1.955
78.6663,0.078,-10.862,-1.875
78.676015,0.039,-10.542,-1.66
78.68573,0.118,-10.812,-1.707
78.695445,0.196,-11.803,-1.962
78.70516,0.118,-12.409,-1.909
78.714875,0.157,-12.148,-1.584
78.72459,0.431,-12.116,-1.539
78.734305,0.235,-12.144,-1.384
78.74402,-0.196,-11.657,-0.98
78.753735,-0.471,-11.016,-0.548
78.76345,-0.628,-10.291,-0.142
78.773165,-0.745,-9.966,0.274
78.782873,-0.824,-9.807,0.501
78.792581,-0.745,-10.073,0.654
78.802289,-0.628,-10.532,0.772
78.811997,-0.51,-10.9,0.826
78.821705,-0.275,-11.23,0.888
78.831413,-0.118,-11.468,0.886
78.841121,0,-11.752,0.915
78.850829,0.196,-11.836,0.94
78.860537,0.353,-11.759,0.954
78.870245,0.51,-11.566,0.988
78.879953,0.667,-11.464,1.086
78.889661,0.824,-11.393,1.138
78.899369,0.863,-11.439,1.17
78.909077,0.863,-11.491,1.24
78.91876,0.981,-11.446,1.208
78.928443,0.902,-11.309,1.113
78.938126,0.745,-11.148,1.101
78.947809,0.628,-10.921,0.942
78.957492,0.431,-10.707,0.86
78.967175,0.235,-10.448,0.747
78.976858,0.039,-10.214,0.549
78.986541,-0.196,-9.903,0.365
78.996224,-0.392,-9.566,0.265
79.005907,-0.51,-9.21,0.049
79.01559,-0.628,-8.885,-0.212
79.025273,-0.667,-8.58,-0.358
79.034956,-0.706,-8.276,-0.503
79.044639,-0.745,-7.978,-0.61
79.054323,-0.785,-7.751,-0.769
79.064007,-0.863,-7.608,-0.903
79.073691,-0.863,-7.542,-1.051
79.083375,-0.902,-7.476,-1.199
79.093059,-0.941,-7.449,-1.353
79.102743,-0.981,-7.46,-1.515
79.112427,-0.981,-7.556,-1.651
79.122111,-0.981,-7.665,-1.71
79.131795,-0.941,-7.644,-1.826
79.141479,-0.902,-7.599,-1.858
79.151163,-0.824,-7.701,-1.955
79.160847,-0.667,-8.035,-2.094
79.170531,-0.628,-8.492,-2.214
79.180223,-0.549,-8.769,-2.223
79.189915,-0.392,-8.942,-2.373
79.199607,-0.275,-9.262,-2.589
79.209299,-0.039,-9.849,-2.653
79.218991,-0.039,-10.26,-2.805
79.228683,0.039,-10.594,-2.943
79.238375,0.157,-10.671,-2.957
79.248067,0.196,-10.446,-2.878
79.257759,0.235,-10.221,-2.798
79.267451,0.196,-10.165,-2.669
79.277143,0.118,-10.217,-2.598
79.286835,0.039,-10.649,-2.634
79.296527,-0.039,-11.91,-2.936
79.306219,-0.392,-12.639,-2.866
79.315897,-0.863,-12.321,-2.412
79.325575,-0.745,-12.675,-2.434
79.335253,-0.824,-13.096,-2.309
79.344931,-1.255,-12.609,-1.905
79.354609,-1.373,-11.6,-1.528
79.364287,-1.255,-10.701,-1.21
79.373965,-1.098,-10.476,-1.13
79.383643,-1.216,-10.514,-1.137
79.393321,-1.412,-10.841,-1.314
79.402999,-1.569,-10.835,-1.353
79.412677,-1.648,-10.589,-1.389
79.422355,-1.804,-10.428,-1.401
79.432033,-2.079,-10.421,-1.439
79.441711,-2.275,-10.601,-1.551
79.451389,-2.55,-10.555,-1.582
79.461067,-2.667,-10.369,-1.51
79.470719,-2.667,-10.246,-1.528
79.480371,-2.667,-10.208,-1.521
79.490023,-2.628,-10.253,-1.489
79.499675,-2.55,-10.267,-1.412
79.509327,-2.354,-10.073,-1.378
79.518979,-2.157,-9.848,-1.298
79.528631,-1.922,-9.624,-1.219
79.538283,-1.726,-9.508,-1.198
79.547935,-1.569,-9.43,-1.185
79.557587,-1.373,-9.314,-1.164
79.567239,-1.216,-9.23,-1.189
79.576891,-1.02,-9.199,-1.144
79.586543,-0.863,-9.121,-1.13
79.596195,-0.745,-9.044,-1.117
79.605845,-0.628,-8.953,-1.18
79.615495,-0.588,-8.842,-1.36
79.625145,-0.51,-8.758,-1.385
79.634795,-0.471,-8.706,-1.455
79.644445,-0.431,-8.576,-1.512
79.654095,-0.431,-8.408,-1.562
79.663745,-0.431,-8.24,-1.612
79.673395,-0.431,-8.219,-1.728
79.683045,-0.431,-8.065,-1.701
79.692695,-0.471,-8.019,-1.733
79.702345,-0.51,-7.935,-1.758
79.711995,-0.549,-8.301,-1.942
79.721645,-0.706,-8.072,-1.662
79.731279,-0.667,-8.128,-1.792
79.740913,-0.706,-8.294,-1.98
79.750547,-0.706,-8.597,-2.073
79.760181,-0.706,-8.776,-2.185
79.769815,-0.628,-8.981,-2.38
79.779449,-0.588,-9.333,-2.641
79.789083,-0.549,-9.853,-2.853
79.798717,-0.549,-10.36,-3.141
79.808351,-0.549,-10.803,-3.339
79.817985,-0.549,-10.874,-3.391
79.827619,-0.667,-10.519,-3.368
79.837253,-0.667,-10.628,-3.427
79.846887,-0.745,-10.526,-3.33
79.856521,-0.785,-11.271,-3.621
79.866147,-0.902,-11.819,-3.677
79.875773,-1.216,-11.485,-3.539
79.885399,-1.294,-10.855,-3.268
79.895025,-1.255,-10.817,-3.262
79.904651,-1.569,-10.605,-3.105
79.914277,-1.726,-10.221,-2.798
79.923903,-1.687,-9.187,-2.337
79.933529,-1.608,-8.424,-1.923
79.943155,-1.451,-7.969,-1.565
79.952781,-1.216,-8.551,-1.428
79.962407,-1.177,-9.185,-1.221
79.972033,-0.902,-9.942,-0.996
79.981659,-0.588,-10.935,-1.012
79.991285,-0.275,-11.434,-0.662
80.000899,0.196,-12.128,-0.346
80.010513,0.706,-12.555,-0.182
80.020127,0.981,-12.659,-0.041
80.029741,1.177,-12.711,0.029
80.039355,1.294,-12.609,0.127
80.048969,1.098,-12.398,0.283
80.058583,1.098,-11.875,0.256
80.068197,1.334,-11.462,0.17
80.077811,1.491,-11.171,0.102
80.087425,1.569,-11.234,0.011
80.097039,1.569,-10.982,-0.064
80.106653,1.53,-10.414,-0.124
80.116267,1.491,-10.194,-0.244
80.125894,1.334,-10.026,-0.294
80.135521,1.059,-9.728,-0.401
80.145148,0.824,-9.346,-0.533
80.154775,0.628,-8.978,-0.587
80.164402,0.431,-8.649,-0.649
80.174029,0.196,-8.365,-0.678
80.183656,0,-8.267,-0.781
80.193283,-0.275,-8.183,-0.806
80.20291,-0.471,-8.208,-0.89
80.212537,-0.628,-8.092,-0.869
80.222164,-0.745,-8.117,-0.953
80.231791,-0.824,-8.296,-1.065
80.241418,-0.863,-8.553,-1.19
80.251082,-0.902,-8.765,-1.346
80.260746,-1.02,-8.846,-1.56
80.27041,-1.02,-9.155,-1.614
80.280074,-1.138,-8.749,-1.662
80.289738,-1.098,-8.915,-1.851
80.299402,-1.138,-8.81,-1.992
80.309066,-1.138,-8.656,-1.964
80.31873,-1.138,-8.751,-2.101
80.328394,-1.177,-8.833,-2.314
80.338058,-1.177,-8.903,-2.367
80.347722,-1.098,-8.753,-2.539
80.357386,-0.785,-8.853,-2.876
80.36705,-0.51,-9.083,-3.155
80.376726,-0.431,-9.301,-3.273
80.386402,-0.431,-9.165,-3.369
80.396078,-0.392,-9.133,-3.323
80.405754,-0.314,-9.185,-3.253
80.41543,-0.314,-9.565,-3.359
80.425106,-0.314,-9.747,-3.232
80.434782,-0.078,-10.678,-3.596
80.444458,0.157,-12.428,-4.063
80.454134,0.118,-13.603,-3.952
80.46381,0.157,-13.955,-3.536
80.473486,0.157,-13.012,-3.011
80.483162,0.118,-11.812,-2.362
80.492838,-0.039,-10.298,-1.457
80.502514,-0.039,-9.823,-1.214
80.512196,-0.118,-10.328,-1.064
80.521878,-0.314,-10.889,-1.044
80.53156,-0.628,-10.948,-0.935
80.541242,-0.824,-10.857,-0.998
80.550924,-1.098,-10.762,-0.862
80.560606,-1.373,-10.832,-0.914
80.570288,-1.726,-10.969,-0.819
80.57997,-1.961,-11.194,-0.898
80.589652,-2.157,-11.285,-0.835
80.599334,-2.197,-11.432,-0.901
80.609016,-2.079,-11.619,-0.973
80.618698,-2.04,-11.896,-0.982
80.62838,-1.844,-11.832,-0.891
80.638062,-1.726,-11.516,-0.876
80.647772,-1.491,-11.162,-0.853
80.657482,-1.373,-10.807,-0.83
80.667192,-1.334,-10.407,-0.839
80.676902,-1.216,-10.046,-0.855
80.686612,-1.059,-9.639,-0.903
80.696322,-0.941,-9.117,-0.93
80.706032,-0.745,-8.633,-0.965
80.715742,-0.588,-8.426,-1.008
80.725452,-0.431,-8.265,-1.019
80.735162,-0.235,-8.008,-0.894
80.744872,-0.039,-7.924,-0.919
80.754582,0.235,-7.865,-1.028
80.764292,0.431,-7.767,-1.131
80.774019,0.51,-7.547,-1.251
80.783746,0.667,-7.442,-1.392
80.793473,0.667,-7.274,-1.442
80.8032,0.628,-7.183,-1.506
80.812927,0.549,-7.008,-1.594
80.822654,0.588,-7.04,-1.64
80.832381,0.549,-7.11,-1.692
80.842108,0.628,-6.994,-1.671
80.851835,0.588,-6.879,-1.651
80.861562,0.588,-6.994,-1.671
80.871289,0.628,-7.342,-1.733
80.881016,0.667,-7.767,-1.808
80.890743,0.745,-8.308,-1.903
80.90047,0.902,-9.017,-1.948
80.910206,0.941,-9.905,-2.105
80.919942,0.941,-11.046,-2.187
80.929678,0.941,-11.801,-2.2
80.939414,0.941,-12.207,-2.152
80.94915,1.059,-12.094,-1.893
80.958886,1.255,-11.696,-1.664
80.968622,1.491,-11.446,-1.5
80.978358,1.726,-12.032,-1.564
80.988094,1.961,-13.475,-1.739
80.99783,1.804,-13.775,-1.393
81.007566,1.922,-13.164,-1.246
81.017302,2.118,-12.648,-1.234
81.027038,1.883,-11.896,-0.982
81.036774,1.53,-10.841,-0.637
81.046505,1.53,-10.421,-0.762
81.056236,1.334,-10.235,-0.689
81.065967,1.216,-10.094,-0.585
81.075698,1.334,-10.112,-0.708
81.085429,1.334,-10.08,-0.662
81.09516,1.334,-10.203,-0.644
81.104891,1.334,-10.339,-0.548
81.114622,1.491,-10.521,-0.421
81.124353,1.687,-10.748,-0.262
81.134084,2.001,-10.975,-0.103
81.143815,2.275,-11.157,0.024
81.153546,2.471,-11.307,0.197
81.163277,2.628,-11.534,0.356
81.173008,2.667,-11.755,0.477
81.182754,2.628,-11.814,0.586
81.1925,2.471,-11.691,0.567
81.202246,2.432,-11.55,0.672
81.211992,2.314,-11.357,0.706
81.221738,2.157,-11.112,0.67
81.231484,2.001,-10.814,0.563
81.24123,1.883,-10.478,0.463
81.250976,1.726,-10.025,0.383
81.260722,1.569,-9.566,0.265
81.270468,1.412,-9.03,0.16
81.280214,1.255,-8.533,0.049
81.28996,0.981,-8.08,-0.031
81.299706,0.706,-7.751,-0.092
81.309455,0.431,-7.492,-0.206
81.319204,0.235,-7.356,-0.301
81.328953,0.078,-7.303,-0.372
81.338702,0,-7.322,-0.494
81.348451,0,-7.333,-0.656
81.3582,0,-7.397,-0.747
81.367949,-0.039,-7.531,-0.89
81.377698,-0.039,-7.587,-1.019
81.387447,-0.039,-7.658,-1.071
81.397196,-0.078,-7.722,-1.162
81.406945,-0.039,-7.785,-1.253
81.416694,0.078,-7.965,-1.365
81.426443,0.157,-8.383,-1.478
81.436192,0.157,-8.731,-1.539
81.445941,0.235,-9.021,-1.471
81.45569,0.314,-9.208,-1.544
81.465439,0.431,-9.58,-1.689
81.475188,0.588,-10.101,-1.901
81.484937,0.667,-10.789,-2.062
81.494686,0.785,-11.362,-2.203
81.504435,0.941,-11.555,-2.237
81.514184,1.138,-11.478,-2.223
81.523933,1.255,-11.535,-2.353
81.533682,1.294,-11.991,-2.473
81.543431,1.255,-12.866,-2.707
81.55318,1.138,-13.878,-2.845
81.562929,1.059,-14.452,-2.748
81.572678,0.981,-14.1,-2.486
81.582446,0.941,-13.116,-2.193
81.592214,0.863,-11.844,-1.73
81.601982,0.706,-10.114,-1.146
81.61175,0.706,-9.303,-1.003
81.621518,0.51,-9.496,-1.037
81.631286,0.275,-10.076,-1.139
81.641054,0.078,-10.739,-1.216
81.650822,-0.078,-11.035,-1.348
81.66059,-0.275,-11.221,-1.421
81.670358,-0.549,-11.253,-1.466
81.680126,-0.628,-11.291,-1.473
81.689894,-0.706,-11.221,-1.421
81.699662,-0.824,-10.867,-1.398
81.709431,-0.785,-10.455,-1.246
81.7192,-0.824,-10.114,-1.146
81.728969,-0.863,-10.005,-1.087
81.738738,-0.941,-9.953,-1.158
81.748507,-0.981,-10.012,-1.048
81.758276,-0.981,-9.942,-0.996
81.768045,-1.02,-9.794,-0.93
81.777814,-1.098,-9.73,-0.839
81.787583,-1.177,-9.737,-0.801
81.797352,-1.255,-9.712,-0.717
81.807121,-1.216,-9.564,-0.651
81.81689,-1.059,-9.378,-0.578
81.826659,-0.824,-9.062,-0.562
81.836428,-0.51,-8.862,-0.567
81.846201,-0.157,-8.837,-0.483
81.855974,0.039,-8.694,-0.617
81.865747,0.314,-8.635,-0.726
81.87552,0.471,-8.537,-0.828
81.885293,0.628,-8.446,-0.892
81.895066,0.745,-7.951,-0.765
81.904839,0.941,-7.742,-1.046
81.914612,0.902,-7.808,-0.899
81.924385,0.941,-7.808,-0.899
81.934158,0.981,-7.724,-0.924
81.943931,1.059,-7.678,-0.956
81.953704,1.059,-7.692,-0.878
81.963477,1.059,-7.762,-0.931
81.97325,1.059,-7.962,-0.926
81.983001,1.059,-8.124,-0.915
81.992752,1.059,-8.458,-1.053
82.002503,0.981,-8.901,-1.251
82.012254,1.02,-9.312,-1.403
82.022005,0.981,-9.949,-1.635
82.031756,0.863,-10.423,-1.878
82.041507,0.745,-10.912,-2.044
82.051258,0.549,-11.387,-2.287
82.061009,0.314,-11.844,-2.407
82.07076,0.196,-11.914,-2.459
82.080511,0.157,-11.644,-2.412
82.090262,0.196,-11.63,-2.489
82.100013,0.235,-12.319,-2.65
82.109764,0.235,-12.789,-2.693
82.119516,0.314,-12.5,-2.523
82.129268,0.471,-11.914,-2.459
82.13902,0.471,-11.682,-2.418
82.148772,0.314,-11.46,-2.1
82.158524,0.235,-10.373,-1.71
82.168276,0.314,-9.337,-1.487
82.178028,0.392,-8.694,-1.294
82.18778,0.471,-9.03,-1.194
82.197532,0.588,-9.399,-1.139
82.207284,0.902,-9.683,-1.11
82.217036,1.255,-9.858,-1.021
82.226788,1.648,-10.201,-0.883
82.23654,2.001,-10.66,-0.764
82.246285,2.236,-11.132,-0.569
82.25603,2.471,-11.521,-0.398
82.265775,2.628,-11.734,-0.316
82.27552,2.824,-11.737,-0.078
82.285265,2.903,-11.648,0.097
82.29501,2.942,-11.591,0.227
82.304755,2.903,-11.489,0.324
82.3145,2.864,-11.373,0.345
82.324245,2.667,-11.173,0.34
82.33399,2.432,-11.012,0.329
82.343735,2.157,-10.728,0.299
82.35348,1.922,-10.489,0.301
82.363225,1.608,-10.205,0.272
82.37297,1.294,-9.907,0.165
82.382687,1.059,-9.501,0.117
82.392404,0.824,-9.235,-0.035
82.402121,0.588,-8.892,-0.174
82.411838,0.314,-8.555,-0.274
82.421555,0.078,-8.265,-0.342
82.431272,-0.078,-8.006,-0.456
82.440989,-0.157,-7.785,-0.576
82.450706,-0.314,-7.642,-0.71
82.460423,-0.353,-7.544,-0.812
82.47014,-0.314,-7.537,-0.851
82.479857,-0.314,-7.485,-0.922
82.489574,-0.275,-7.542,-1.051
82.499291,-0.235,-7.599,-1.181
82.509008,-0.118,-7.624,-1.265
82.518691,-0.039,-7.624,-1.265
82.528374,0.039,-7.751,-1.446
82.538057,0.078,-7.892,-1.551
82.54774,0.118,-8.181,-1.721
82.557423,0.118,-8.599,-1.835
82.567106,0.118,-9.094,-1.962
82.576789,0.078,-9.519,-2.037
82.586472,0.118,-9.899,-2.144
82.596155,0.235,-10.419,-2.355
82.605838,0.235,-10.946,-2.528
82.615521,0.235,-11.333,-2.596
82.625204,0.275,-11.448,-2.616
82.634887,0.275,-11.364,-2.641
82.64457,0.314,-11.101,-2.555
82.654221,0.392,-11.23,-2.498
82.663872,0.392,-11.88,-2.652
82.673523,0.314,-12.86,-2.745
82.683174,0.235,-13.403,-2.602
82.692825,0.196,-12.871,-2.23
82.702476,0.275,-11.848,-1.93
82.712127,0.235,-10.428,-1.401
82.721778,0.196,-8.983,-0.787
82.731429,0.235,-8.353,-0.517
82.74108,0.235,-9.037,-0.478
82.750731,0.078,-10.03,-0.494
82.760382,-0.118,-10.862,-0.521
82.770033,-0.196,-11.216,-0.544
82.779684,-0.314,-11.416,-0.539
82.789329,-0.51,-11.732,-0.555
82.798974,-0.667,-11.991,-0.441
82.808619,-0.785,-11.928,-0.351
82.818264,-0.863,-11.618,-0.296
82.827909,-0.863,-11.239,-0.189
82.837554,-0.863,-11.021,-0.071
82.847199,-0.863,-10.905,-0.051
82.856844,-0.863,-10.912,-0.012
82.866489,-0.824,-10.898,-0.089
82.876134,-0.785,-10.814,-0.114
82.885779,-0.745,-10.839,-0.198
82.895424,-0.706,-10.6,-0.196
82.905069,-0.706,-10.285,-0.18
82.914702,-0.667,-9.969,-0.164
82.924335,-0.628,-9.505,-0.083
82.933968,-0.628,-9.042,-0.001
82.943601,-0.549,-8.628,-0.087
82.953234,-0.431,-8.383,-0.124
82.962867,-0.431,-8.285,-0.226
82.9725,-0.353,-8.342,-0.356
82.982133,-0.314,-8.367,-0.44
82.991766,-0.275,-8.276,-0.503
83.001399,-0.314,-8.255,-0.619
83.011032,-0.275,-8.126,-0.676
83.020665,-0.275,-8.081,-0.708
83.030298,-0.235,-7.996,-0.733
83.039931,-0.235,-7.919,-0.719
83.049557,-0.235,-7.835,-0.744
83.059183,-0.196,-7.79,-0.776
83.068809,-0.157,-7.874,-0.751
83.078435,-0.235,-7.996,-0.733
83.088061,-0.275,-8.119,-0.715
83.097687,-0.196,-8.646,-0.887
83.107313,-0.235,-9.214,-0.828
83.116939,-0.275,-9.389,-0.739
83.126565,-0.196,-9.762,-0.885
83.136191,-0.275,-10.503,-0.976
83.145817,-0.314,-11.089,-1.039
83.155443,-0.314,-11.353,-1.125
83.165069,-0.353,-11.578,-1.205
83.174695,-0.392,-11.591,-1.128
83.184339,-0.392,-11.237,-1.105
83.193983,-0.314,-11.051,-1.032
83.203627,-0.196,-11.539,-1.198
83.213271,-0.118,-12.512,-1.33
83.222915,-0.157,-12.718,-1.287
83.232559,0,-12.255,-1.205
83.242203,0.157,-11.707,-1.148
83.251847,0.118,-10.846,-0.837
83.261491,0.157,-10.255,-0.573
83.271135,0.157,-9.735,-0.362
83.280779,0.196,-9.189,-0.067
83.290423,0.353,-9.133,0.063
83.300067,0.51,-9.43,0.169
83.309718,0.706,-9.644,0.251
83.319369,0.981,-9.664,0.367
83.32902,1.334,-9.903,0.365
83.338671,1.765,-10.439,0.47
83.348322,2.079,-10.93,0.542
83.357973,2.393,-11.266,0.642
83.367624,2.707,-11.557,0.711
83.377275,2.942,-11.861,0.856
83.386926,3.06,-11.896,1.049
83.396577,3.217,-11.832,1.14
83.406228,3.256,-11.73,1.238
83.415879,3.295,-11.627,1.335
83.42553,3.217,-11.518,1.395
83.435181,3.138,-11.227,1.326
83.444839,3.02,-10.982,1.29
83.454497,2.824,-10.737,1.254
83.464155,2.707,-10.548,1.088
83.473813,2.471,-10.341,1.044
83.483471,2.197,-10.037,0.899
83.493129,1.961,-9.7,0.799
83.502787,1.687,-9.364,0.699
83.512445,1.412,-8.957,0.651
83.522103,1.138,-8.614,0.512
83.531761,0.902,-8.303,0.328
83.541419,0.706,-8.051,0.253
83.551077,0.471,-7.908,0.119
83.560735,0.353,-7.842,-0.028
83.570393,0.196,-7.731,-0.208
83.580036,0.118,-7.71,-0.324
83.589679,0.039,-7.715,-0.524
83.599322,0,-7.694,-0.64
83.608965,-0.039,-7.635,-0.749
83.618608,-0.078,-7.506,-0.806
83.628251,-0.078,-7.531,-0.89
83.637894,-0.039,-7.485,-0.922
83.647537,0,-7.485,-0.922
83.65718,0.157,-7.612,-1.103
83.666823,0.275,-7.974,-1.087
83.676466,0.392,-8.451,-1.092
83.686109,0.588,-8.876,-1.167
83.695752,0.745,-9.224,-1.228
83.705395,0.902,-9.803,-1.33
83.715048,0.941,-10.383,-1.432
83.724701,1.02,-10.751,-1.378
83.734354,1.059,-10.919,-1.328
83.744007,1.059,-10.971,-1.257
83.75366,1.02,-10.876,-1.121
83.763313,0.981,-10.671,-0.926
83.772966,0.902,-10.589,-0.712
83.782619,0.863,-11.066,-0.717
83.792272,0.824,-12.716,-0.848
83.801925,0.471,-13.641,-0.573
83.811578,0.314,-13.65,-0.296
83.821231,0.431,-13.709,-0.187
83.830884,0.275,-13.332,0.159
83.840524,0.196,-12.498,0.624
83.850164,0,-11.437,0.931
83.859804,0,-10.709,1.099
83.869444,-0.078,-11.018,1.045
83.879084,-0.275,-11.514,0.917
83.888724,-0.51,-11.668,0.89
83.898364,-0.706,-11.268,0.881
83.908004,-0.941,-10.83,0.879
83.917644,-1.138,-10.932,0.781
83.927284,-1.451,-11.08,0.715
83.936924,-1.648,-11.041,0.722
83.946564,-1.804,-10.757,0.692
83.956204,-1.804,-10.487,0.74
83.965844,-1.726,-10.319,0.69
83.975504,-1.608,-10.35,0.645
83.985164,-1.373,-10.382,0.599
83.994824,-1.294,-10.291,0.535
84.004484,-1.098,-10.221,0.588
84.014144,-0.941,-10.021,0.583
84.023804,-0.785,-9.86,0.572
84.033464,-0.667,-9.646,0.49
84.043124,-0.588,-9.478,0.44
84.052784,-0.51,-9.264,0.358
84.062444,-0.431,-9.057,0.315
84.072104,-0.314,-8.883,0.226
84.081764,-0.235,-8.708,0.138
84.091424,-0.157,-8.501,0.094
84.101079,-0.157,-8.396,-0.047
84.110734,-0.118,-8.344,-0.117
84.120389,-0.039,-8.292,-0.187
84.130044,-0.039,-8.201,-0.251
84.139699,-0.039,-8.117,-0.276
84.149354,-0.039,-8.04,-0.262
84.159009,-0.078,-7.994,-0.294
84.168664,-0.118,-7.91,-0.319
84.178319,-0.078,-7.917,-0.281
84.187974,-0.118,-7.885,-0.235
84.197629,-0.078,-7.853,-0.19
84.207284,-0.078,-7.815,-0.183
84.216939,-0.078,-7.821,-0.144
84.226594,-0.039,-8.162,-0.244
84.236271,-0.039,-8.569,-0.196
84.245948,0.039,-8.762,-0.231
84.255625,0.157,-9.001,-0.233
84.265302,0.235,-9.56,-0.451
84.274979,0.275,-10.41,-0.601
84.284656,0.235,-11.06,-0.755
84.294333,0.353,-11.53,-0.798
84.30401,0.431,-11.684,-0.826
84.313687,0.51,-11.389,-0.694
84.323364,0.549,-10.83,-0.476
84.333041,0.745,-10.721,-0.417
84.342718,0.863,-11.482,-0.392
84.352395,0.863,-12,-0.164
84.362077,0.941,-11.693,0.129
84.371759,1.216,-11.166,0.302
84.381441,1.255,-10.859,0.595
84.391123,1.098,-10.444,0.947
84.400805,1.02,-9.814,1.217
84.410487,0.981,-9.641,1.367
84.420169,0.824,-9.619,1.69
84.429851,0.785,-9.589,1.974
84.439533,0.863,-9.675,2.237
84.449215,0.902,-9.768,2.54
84.458897,0.824,-9.816,2.81
84.468579,0.981,-9.896,3.035
84.478261,1.138,-10.066,3.324
84.487943,1.373,-10.416,3.501
84.497655,1.53,-10.773,3.717
84.507367,1.765,-11.193,3.842
84.517079,1.961,-11.452,3.955
84.526791,2.04,-11.563,4.135
84.536503,2.118,-11.629,4.283
84.546215,2.157,-11.559,4.335
84.555927,2.157,-11.436,4.317
84.565639,2.079,-11.229,4.274
84.575351,2.001,-10.977,4.199
84.585063,1.961,-10.75,4.039
84.594775,1.883,-10.452,3.933
84.604487,1.765,-10.186,3.78
84.614199,1.687,-10.005,3.653
84.623926,1.53,-9.784,3.533
84.633653,1.412,-9.48,3.387
84.64338,1.255,-9.168,3.203
84.653107,1.059,-8.728,2.962
84.662834,0.902,-8.398,2.901
84.672561,0.667,-8.087,2.717
84.682288,0.51,-7.919,2.667
84.692015,0.353,-7.776,2.532
84.701742,0.235,-7.632,2.398
84.711469,0.118,-7.619,2.321
84.721196,0.039,-7.598,2.205
84.730923,0,-7.842,2.003
84.74065,-0.039,-8.266,1.928
84.750377,-0.078,-8.666,1.937
84.76011,-0.078,-8.898,1.896
84.769843,-0.196,-8.996,1.999
84.779576,-0.314,-9.062,2.146
84.789309,-0.353,-9.139,2.133
84.799042,-0.471,-9.346,2.176
84.808775,-0.588,-9.609,2.09
84.818508,-0.51,-9.905,1.958
84.828241,-0.431,-10.284,1.851
84.837974,-0.392,-10.696,1.699
84.847707,-0.314,-11.023,1.522
84.85744,-0.235,-11.196,1.372
84.867173,-0.157,-11.15,1.34
84.876906,-0.157,-11.021,1.283
84.886639,-0.118,-10.834,1.356
84.896404,-0.078,-10.816,1.479
84.906169,-0.157,-11.248,1.442
84.915934,-0.275,-12.491,1.263
84.925699,-0.51,-13.42,1.338
84.935464,-0.706,-13.775,1.315
84.945229,-0.628,-13.859,1.34
84.954994,-0.667,-13.223,1.572
84.964759,-0.745,-12.47,1.824
84.974524,-0.863,-11.03,2.238
84.984289,-0.745,-9.973,2.344
84.994054,-0.824,-10.016,2.137
85.003819,-1.138,-10.427,1.985
85.013584,-1.412,-10.459,1.94
85.023365,-1.491,-10.316,1.806
85.033146,-1.569,-10.289,1.651
85.042927,-1.804,-10.43,1.547
85.052708,-2.079,-10.505,1.294
85.062489,-2.314,-10.632,1.113
85.07227,-2.471,-10.503,1.056
85.082051,-2.55,-10.334,1.006
85.091832,-2.55,-10.191,0.872
85.101613,-2.471,-10.262,0.819
85.111394,-2.471,-10.28,0.697
85.121175,-2.393,-10.221,0.588
85.130956,-2.275,-10.053,0.538
85.140737,-2.118,-9.801,0.463
85.150518,-2.001,-9.671,0.406
85.160307,-1.883,-9.528,0.272
85.170096,-1.844,-9.36,0.222
85.179885,-1.726,-8.998,0.206
85.189674,-1.687,-8.623,0.113
85.199463,-1.569,-8.255,0.058
85.209252,-1.451,-7.971,0.028
85.219041,-1.294,-7.765,-0.015
85.22883,-1.138,-7.667,-0.117
85.238619,-0.902,-7.601,-0.265
85.248408,-0.706,-7.535,-0.413
85.258197,-0.51,-7.476,-0.522
85.267986,-0.353,-7.456,-0.637
85.277775,-0.196,-7.435,-0.753
85.287564,-0.196,-7.46,-0.837
85.297345,-0.157,-7.544,-0.812
85.307126,-0.196,-7.653,-0.872
85.316907,-0.275,-7.847,-0.906
85.326688,-0.235,-7.951,-0.765
85.336469,-0.196,-8.035,-0.74
85.34625,-0.118,-8.274,-0.742
85.356031,-0.118,-8.526,-0.667
85.365812,-0.039,-8.926,-0.658
85.375593,-0.039,-9.312,-0.726
85.385374,-0.039,-9.776,-0.808
85.395155,-0.039,-10.31,-0.942
85.404936,-0.039,-10.689,-1.048
85.414717,-0.039,-10.96,-1.096
85.424498,0,-11.241,-1.305
85.434248,0,-11.371,-1.248
85.443998,0.039,-11.241,-1.305
85.453748,0.235,-10.957,-1.335
85.463498,0.353,-11.046,-1.51
85.473248,0.314,-12.05,-1.687
85.482998,0.157,-12.868,-1.791
85.492748,0.078,-12.639,-1.512
85.502498,0.314,-12.182,-1.391
85.512248,0.431,-11.725,-1.271
85.521998,0.431,-11.457,-0.985
85.531748,0.431,-10.919,-0.651
85.541498,0.51,-10.31,-0.264
85.551248,0.51,-10.221,-0.089
85.560998,0.51,-10.673,-0.01
85.570753,0.51,-11.312,-0.003
85.580508,0.706,-11.416,0.138
85.590263,0.902,-11.416,0.138
85.600018,1.098,-11.609,0.104
85.609773,1.216,-11.777,0.154
85.619528,1.412,-11.746,0.199
85.629283,1.608,-11.739,0.161
85.639038,1.765,-11.752,0.238
85.648793,1.883,-11.65,0.336
85.658548,1.922,-11.496,0.363
85.668303,1.961,-11.296,0.358
85.678058,1.883,-11.103,0.392
85.687813,1.687,-10.903,0.388
85.697568,1.412,-10.657,0.351
85.707299,1.255,-10.282,0.258
85.71703,0.902,-10.023,0.145
85.726761,0.667,-9.701,0.122
85.736492,0.471,-9.371,0.06
85.746223,0.196,-9.01,0.044
85.755954,0,-8.628,-0.087
85.765685,-0.235,-8.26,-0.142
85.775416,-0.51,-8.046,-0.224
85.785147,-0.667,-7.801,-0.26
85.794878,-0.824,-7.626,-0.349
85.804609,-0.941,-7.451,-0.438
85.81434,-1.059,-7.301,-0.61
85.824071,-1.098,-7.287,-0.688
85.833802,-1.098,-7.351,-0.778
85.843531,-1.098,-7.433,-0.992
85.85326,-1.059,-7.542,-1.051
85.862989,-0.981,-7.599,-1.181
85.872718,-0.941,-7.701,-1.278
85.882447,-0.941,-7.797,-1.415
85.892176,-0.863,-7.86,-1.505
85.901905,-0.824,-7.969,-1.565
85.911634,-0.785,-8.194,-1.644
85.921363,-0.745,-8.612,-1.758
85.931092,-0.706,-9.199,-1.821
85.940821,-0.667,-9.49,-1.753
85.95055,-0.588,-9.574,-1.728
85.960279,-0.471,-9.824,-1.891
85.969979,-0.431,-10.267,-2.089
85.979679,-0.431,-10.744,-2.094
85.989379,-0.588,-11.137,-2.123
85.999079,-0.745,-11.305,-2.073
86.008779,-0.902,-11.139,-1.884
86.018479,-0.981,-10.857,-1.675
86.028179,-1.02,-10.987,-1.619
86.037879,-1.02,-12.216,-1.875
86.047579,-1.412,-13.416,-1.848
86.057279,-1.922,-13.843,-1.684
86.066979,-1.961,-14.339,-1.811
86.076679,-2.04,-13.857,-1.607
86.086379,-2.001,-12.746,-1.132
86.096079,-2.04,-11.01,-0.587
86.105773,-1.961,-9.496,-0.36
86.115467,-1.608,-9.314,-0.487
86.125161,-1.491,-10.112,-0.708
86.134855,-1.648,-10.821,-0.753
86.144549,-1.53,-11.026,-0.948
86.154243,-1.412,-10.928,-1.051
86.163937,-1.334,-11.146,-1.169
86.173631,-1.491,-11.519,-1.314
86.183325,-1.687,-11.687,-1.264
86.193019,-1.687,-11.441,-1.3
86.202713,-1.569,-11.094,-1.239
86.212407,-1.451,-10.907,-1.166
86.222101,-1.177,-10.805,-1.069
86.231776,-0.902,-10.76,-1.101
86.241451,-0.549,-10.605,-1.073
86.251126,-0.157,-10.342,-0.987
86.260801,0.157,-10.11,-0.946
86.270476,0.431,-9.942,-0.996
86.280151,0.628,-9.703,-0.994
86.289826,0.745,-9.464,-0.992
86.299501,0.824,-9.149,-0.976
86.309176,0.941,-8.871,-0.967
86.318851,0.941,-8.64,-0.926
86.328526,0.981,-8.285,-0.903
86.338201,0.981,-8.085,-0.908
86.347876,0.941,-7.885,-0.912
86.357551,0.902,-7.833,-0.983
86.367214,0.863,-7.826,-1.021
86.376877,0.863,-7.851,-1.106
86.38654,0.902,-7.869,-1.228
86.396203,0.941,-7.926,-1.358
86.405866,0.902,-7.803,-1.376
86.415529,0.785,-7.835,-1.421
86.425192,0.667,-7.744,-1.485
86.434855,0.628,-7.628,-1.465
86.444518,0.51,-7.558,-1.412
86.454181,0.471,-7.622,-1.503
86.463844,0.431,-7.937,-1.519
86.473507,0.392,-8.028,-1.455
86.48317,0.51,-8.362,-1.594
86.492833,0.588,-8.735,-1.739
86.502463,0.667,-9.276,-1.835
86.512093,0.863,-9.835,-2.053
86.521723,0.981,-10.544,-2.098
86.531353,1.02,-10.73,-2.171
86.540983,1.098,-11.033,-2.264
86.550613,1.138,-11.285,-2.189
86.560243,1.177,-11.196,-2.014
86.569873,1.373,-10.992,-1.819
86.579503,1.569,-11.16,-1.769
86.589133,1.726,-12.273,-2.005
86.598763,1.608,-13.453,-2.093
86.608393,1.412,-13.557,-1.952
86.618023,1.608,-13.403,-1.925
86.627653,1.53,-13.216,-1.852
86.637287,1.059,-12.659,-1.396
86.646921,0.785,-11.503,-0.953
86.656555,0.706,-10.41,-0.601
86.666189,0.549,-9.717,-0.24
86.675823,0.471,-9.519,-0.005
86.685457,0.471,-9.694,0.083
86.695091,0.51,-10.087,0.054
86.704725,0.471,-10.294,0.097
86.714359,0.471,-10.462,0.147
86.723993,0.431,-10.784,0.17
86.733627,0.392,-11.223,0.172
86.743261,0.353,-11.546,0.195
86.752895,0.392,-11.7,0.168
86.762546,0.431,-11.675,0.252
86.772197,0.51,-11.643,0.297
86.781848,0.667,-11.496,0.363
86.791499,0.785,-11.303,0.397
86.80115,0.824,-11.071,0.438
86.810801,0.863,-10.903,0.388
86.820452,0.863,-10.741,0.376
86.830103,0.785,-10.496,0.34
86.839754,0.628,-10.321,0.251
86.849405,0.51,-10.114,0.208
86.859056,0.353,-9.887,0.049
86.868707,0.196,-9.635,-0.026
86.878358,0.078,-9.253,-0.158
86.888009,-0.039,-8.91,-0.296
86.89766,-0.118,-8.58,-0.358
86.907311,-0.196,-8.29,-0.426
86.916982,-0.275,-8.006,-0.456
86.926653,-0.196,-7.792,-0.537
86.936324,-0.196,-7.585,-0.581
86.945995,-0.118,-7.526,-0.69
86.955666,-0.078,-7.526,-0.69
86.965337,-0.078,-7.622,-0.826
86.975008,-0.118,-7.731,-0.885
86.984679,-0.118,-7.794,-0.976
86.99435,-0.078,-7.833,-0.983
87.004021,-0.078,-7.833,-0.983
87.013692,0,-7.865,-1.028
87.023363,0.039,-8.012,-1.094
87.033034,0.157,-8.431,-1.208
87.042684,0.196,-8.901,-1.251
87.052334,0.235,-9.242,-1.351
87.061984,0.275,-9.474,-1.392
87.071634,0.314,-9.871,-1.621
87.081284,0.392,-10.444,-1.762
87.090934,0.471,-10.894,-1.921
87.100584,0.588,-11.119,-2
87.110234,0.667,-11.221,-2.098
87.119884,0.706,-11.06,-2.109
87.129534,0.785,-10.828,-2.069
87.139184,0.745,-10.892,-2.159
87.148834,0.667,-11.689,-2.38
87.158484,0.471,-12.81,-2.577
87.168134,0.275,-13.923,-2.813
87.177784,0.078,-13.964,-2.582
87.187437,0.039,-13.166,-2.361
87.19709,0.078,-12.144,-2.062
87.206743,-0.235,-10.853,-1.476
87.216396,-0.431,-9.883,-1.105
87.226049,-0.431,-9.703,-0.994
87.235702,-0.588,-10.103,-0.985
87.245355,-0.824,-10.696,-1.01
87.255008,-1.02,-10.787,-0.946
87.264661,-1.177,-10.755,-0.901
87.274314,-1.373,-11.026,-0.948
87.283967,-1.608,-11.348,-0.926
87.29362,-1.804,-11.4,-0.855
87.303273,-1.922,-11.014,-0.787
87.312917,-2.001,-10.705,-0.732
87.322561,-2.079,-10.616,-0.558
87.332205,-2.197,-10.623,-0.519
87.341849,-2.197,-10.623,-0.519
87.351493,-2.275,-10.507,-0.498
87.361137,-2.157,-10.391,-0.478
87.370781,-2.04,-10.198,-0.444
87.380425,-1.961,-9.992,-0.487
87.390069,-1.844,-9.785,-0.53
87.399713,-1.765,-9.533,-0.605
87.409357,-1.608,-9.171,-0.621
87.419001,-1.491,-8.842,-0.683
87.428645,-1.412,-8.526,-0.667
87.438289,-1.373,-8.203,-0.69
87.447938,-1.373,-7.937,-0.842
87.457587,-1.138,-7.842,-0.706
87.467236,-1.216,-7.796,-0.737
87.476885,-1.216,-7.783,-0.815
87.486534,-1.294,-7.899,-0.835
87.496183,-1.373,-8.015,-0.856
87.505832,-1.334,-8.246,-0.896
87.515481,-1.294,-8.408,-0.885
87.52513,-1.216,-8.51,-0.983
87.534779,-1.138,-8.542,-1.028
87.544428,-0.981,-8.542,-1.028
87.554077,-0.863,-8.451,-1.092
87.563726,-0.785,-8.399,-1.162
87.573375,-0.628,-8.487,-1.337
87.583048,-0.549,-9.071,-1.639
87.592721,-0.51,-9.437,-1.823
87.602394,-0.471,-9.565,-2.005
87.612067,-0.431,-9.692,-2.187
87.62174,-0.353,-9.999,-2.48
87.631413,-0.392,-10.589,-2.744
87.641086,-0.392,-11.148,-2.962
87.650759,-0.353,-11.546,-3.191
87.660432,-0.392,-11.526,-3.307
87.670105,-0.431,-11.049,-3.302
87.679778,-0.392,-10.269,-3.205
87.689451,-0.353,-9.862,-3.253
87.699124,-0.275,-10.717,-3.602
87.708803,-0.235,-12.121,-3.77
87.718482,-0.275,-12.507,-3.839
87.728161,-0.118,-12.017,-3.911
87.73784,0,-11.287,-3.982
87.747519,0,-10.606,-3.782
87.757198,-0.157,-9.79,-3.439
87.766877,-0.157,-8.96,-3.173
87.776556,-0.118,-8.285,-2.935
87.786235,-0.078,-8.113,-2.785
87.795914,0.039,-8.481,-2.73
87.805593,0.196,-9.112,-2.762
87.815272,0.275,-9.628,-2.773
87.824951,0.353,-9.99,-2.757
87.83463,0.51,-10.235,-2.721
87.844306,0.628,-10.558,-2.698
87.853982,0.745,-10.823,-2.546
87.863658,0.863,-10.883,-2.437
87.873334,1.02,-10.91,-2.282
87.88301,1.255,-10.898,-2.121
87.892686,1.373,-10.901,-1.882
87.902362,1.412,-10.851,-1.714
87.912038,1.412,-10.723,-1.532
87.921714,1.412,-10.589,-1.389
87.93139,1.294,-10.41,-1.278
87.941066,1.216,-10.307,-1.18
87.950742,1.059,-10.096,-1.023
87.960418,0.863,-9.748,-0.962
87.970094,0.667,-9.517,-0.921
87.979774,0.431,-9.285,-0.88
87.989454,0.235,-9.067,-0.762
87.999134,0.118,-8.776,-0.83
88.008814,0.039,-8.544,-0.79
88.018494,-0.039,-8.428,-0.769
88.028174,-0.039,-8.312,-0.749
88.037854,-0.078,-8.19,-0.767
88.047534,-0.078,-8.081,-0.708
88.057214,0,-7.951,-0.765
88.066894,0.039,-8.028,-0.778
88.076574,0.118,-8.137,-0.837
88.086254,0.235,-8.201,-0.928
88.095934,0.314,-8.233,-0.974
88.105641,0.353,-8.296,-1.065
88.115348,0.353,-8.353,-1.194
88.125055,0.392,-8.262,-1.258
88.134762,0.471,-8.21,-1.328
88.144469,0.471,-8.197,-1.405
88.154176,0.471,-8.312,-1.426
88.163883,0.431,-8.608,-1.558
88.17359,0.353,-8.994,-1.626
88.183297,0.275,-9.303,-1.68
88.193004,0.275,-9.592,-1.851
88.202711,0.275,-10.112,-2.062
88.212418,0.275,-10.794,-2.262
88.222125,0.275,-11.36,-2.441
88.231831,0.275,-11.648,-2.612
88.241537,0.235,-11.655,-2.573
88.251243,0.157,-11.455,-2.578
88.260949,-0.039,-11.392,-2.487
88.270655,-0.235,-11.507,-2.507
88.280361,-0.431,-12.351,-2.696
88.290067,-0.706,-13.471,-2.893
88.299773,-0.981,-14.289,-2.997
88.309479,-1.098,-14.425,-2.902
88.319185,-1.216,-13.466,-2.693
88.328891,-1.255,-11.98,-2.312
88.338597,-1.334,-10.514,-1.814
88.348303,-1.412,-9.499,-1.476
88.358009,-1.53,-9.178,-1.26
88.367733,-1.648,-9.462,-1.23
88.377457,-1.648,-10.055,-1.255
88.387181,-1.765,-10.673,-1.364
88.396905,-1.844,-10.996,-1.341
88.406629,-1.844,-10.957,-1.335
88.416353,-1.883,-11.26,-1.428
88.426077,-1.961,-11.428,-1.378
88.435801,-2.079,-11.435,-1.339
88.445525,-2.118,-11.132,-1.246
88.455249,-2.001,-10.798,-1.107
88.464973,-1.961,-10.528,-1.06
88.474697,-1.765,-10.489,-1.053
88.484421,-1.53,-10.373,-1.032
88.494139,-1.373,-10.226,-0.967
88.503857,-1.294,-9.948,-0.958
88.513575,-1.177,-9.671,-0.948
88.523293,-1.138,-9.439,-0.908
88.533011,-1.059,-9.233,-0.951
88.542729,-1.059,-9.064,-1.001
88.552447,-1.059,-8.819,-1.037
88.562165,-1.098,-8.58,-1.035
88.571883,-1.059,-8.342,-1.033
88.581601,-1.02,-8.167,-1.121
88.591319,-0.941,-8.121,-1.153
88.601037,-0.863,-8.062,-1.262
88.610755,-0.745,-8.042,-1.378
88.620473,-0.667,-8.06,-1.501
88.630185,-0.706,-8.047,-1.578
88.639897,-0.667,-8.078,-1.624
88.649609,-0.706,-8.065,-1.701
88.659321,-0.785,-8.026,-1.694
88.669033,-0.785,-7.91,-1.674
88.678745,-0.824,-7.865,-1.705
88.688457,-0.863,-7.903,-1.712
88.698169,-0.941,-7.801,-1.615
88.707881,-1.059,-7.64,-1.626
88.717593,-1.138,-7.608,-1.58
88.727305,-1.138,-8.026,-1.694
88.737017,-1.255,-8.49,-1.776
88.746729,-1.294,-8.883,-1.805
88.756441,-1.216,-9.533,-1.96
88.766141,-1.255,-9.726,-1.994
88.775841,-1.098,-10.18,-2.353
88.785541,-1.059,-10.753,-2.494
88.795241,-0.981,-11.526,-2.63
88.804941,-0.981,-11.944,-2.743
88.814641,-0.981,-11.821,-2.762
88.824341,-0.863,-11.41,-2.609
88.834041,-0.745,-11.126,-2.639
88.843741,-0.706,-11.653,-2.812
88.853441,-0.628,-12.605,-3.059
88.863141,-0.588,-13.082,-3.064
88.872841,-0.588,-12.632,-2.905
88.882541,-0.471,-11.969,-2.827
88.892261,-0.51,-11.582,-2.759
88.901981,-0.706,-11.051,-2.387
88.911701,-0.785,-10.433,-2.278
88.921421,-0.824,-9.776,-2.162
88.931141,-0.824,-9.621,-2.135
88.940861,-0.745,-9.783,-2.123
88.950581,-0.667,-10.13,-2.185
88.960301,-0.51,-10.169,-2.191
88.970021,-0.275,-10.124,-2.223
88.979741,-0.039,-10.155,-2.269
88.989461,0.275,-10.278,-2.25
88.999181,0.588,-10.471,-2.285
89.008901,0.863,-10.555,-2.26
89.018614,1.138,-10.583,-2.105
89.028327,1.412,-10.558,-2.021
89.03804,1.569,-10.56,-1.782
89.047753,1.726,-10.535,-1.698
89.057466,1.804,-10.408,-1.516
89.067179,1.804,-10.189,-1.398
89.076892,1.765,-10.017,-1.248
89.086605,1.648,-9.889,-1.067
89.096318,1.53,-9.78,-1.008
89.106031,1.373,-9.594,-0.935
89.115744,1.294,-9.523,-0.883
89.125457,1.177,-9.53,-0.844
89.13517,1.02,-9.492,-0.837
89.144883,0.902,-9.337,-0.81
89.15461,0.745,-9.137,-0.814
89.164337,0.628,-8.944,-0.78
89.174064,0.549,-8.699,-0.817
89.183791,0.431,-8.415,-0.846
89.193518,0.314,-8.246,-0.896
89.203245,0.275,-8.124,-0.915
89.212972,0.196,-8.103,-1.031
89.222699,0.118,-8.044,-1.14
89.232426,0.039,-8.024,-1.255
89.242153,0.039,-8.049,-1.34
89.25188,-0.039,-8.022,-1.494
89.261607,-0.078,-7.956,-1.642
89.271334,-0.118,-7.935,-1.758
89.281049,-0.157,-8.006,-1.81
89.290764,-0.157,-8.108,-1.908
89.300479,-0.118,-8.281,-2.058
89.310194,-0.118,-8.608,-2.235
89.319909,-0.118,-8.942,-2.373
89.329624,-0.118,-9.122,-2.485
89.339339,-0.039,-9.442,-2.7
89.349054,0,-9.846,-2.891
89.358769,0,-10.412,-3.071
89.368484,0.118,-10.862,-3.23
89.378199,0.157,-11.119,-3.355
89.387914,0.118,-11.055,-3.264
89.397629,0.118,-10.792,-3.177
89.407344,0.078,-10.458,-3.039
89.417049,0.039,-10.639,-2.912
89.426754,0.118,-11.651,-3.05
89.436459,0.039,-12.578,-3.214
89.446164,-0.039,-12.964,-3.282
89.455869,0,-13.073,-3.341
89.465574,-0.118,-12.476,-3.116
89.475279,-0.353,-11.242,-2.659
89.484984,-0.549,-9.724,-2.232
89.494689,-0.706,-8.792,-1.869
89.504394,-0.785,-9.083,-1.801
89.514099,-0.981,-10.083,-1.778
89.523804,-1.255,-10.742,-1.655
89.533509,-1.451,-10.671,-1.603
89.543214,-1.53,-10.523,-1.537
89.552929,-1.726,-10.86,-1.437
89.562644,-2.079,-11.26,-1.428
89.572359,-2.197,-11.273,-1.35
89.582074,-2.157,-11.048,-1.271
89.591789,-2.079,-10.83,-1.153
89.601504,-1.961,-10.657,-1.003
89.611219,-1.804,-10.587,-0.951
89.620934,-1.608,-10.491,-0.814
89.630649,-1.451,-10.267,-0.735
89.640364,-1.255,-10.126,-0.63
89.650079,-1.098,-9.964,-0.642
89.659794,-0.902,-9.932,-0.596
89.669509,-0.785,-10.119,-0.669
89.679214,-0.628,-10.351,-0.71
89.688919,-0.628,-10.435,-0.685
89.698624,-0.667,-10.507,-0.498
89.708329,-0.588,-10.282,-0.419
89.718034,-0.549,-10.051,-0.378
89.727739,-0.471,-9.664,-0.31
89.737444,-0.392,-9.296,-0.365
89.747149,-0.314,-8.967,-0.426
89.756854,-0.235,-8.599,-0.481
89.766559,-0.157,-8.442,-0.692
89.776264,-0.196,-8.215,-0.851
89.785969,-0.157,-7.962,-0.926
89.795674,-0.157,-7.76,-1.169
89.805379,-0.157,-7.526,-1.367
89.815087,-0.235,-7.351,-1.456
89.824795,-0.157,-7.26,-1.519
89.834503,-0.118,-7.047,-1.601
89.844211,-0.118,-6.904,-1.735
89.853919,-0.118,-6.929,-1.819
89.863627,-0.078,-7.122,-1.853
89.873335,-0.039,-7.372,-2.017
89.883043,-0.039,-7.731,-2.239
89.892751,-0.039,-8.213,-2.444
89.902459,0,-9.01,-2.664
89.912167,-0.039,-9.724,-2.91
89.921875,-0.039,-10.419,-3.032
89.931583,0,-10.992,-3.173
89.941291,-0.039,-11.108,-3.193
89.950999,0,-10.689,-3.08
89.960707,0.118,-10.246,-2.882
89.970418,0.235,-10.312,-2.734
89.980129,0.392,-11.355,-2.918
89.98984,0.392,-12.537,-2.768
89.999551,0.431,-12.457,-2.316
90.009262,0.667,-11.962,-2.189
90.018973,0.981,-12.053,-2.125
90.028684,0.902,-12.064,-1.609
90.038395,0.863,-11.662,-1.18
90.048106,0.902,-11.212,-1.021
90.057817,0.981,-10.853,-0.798
90.067528,0.981,-10.95,-0.696
90.077239,1.138,-11.325,-0.603
90.08695,1.294,-11.423,-0.501
90.09664,1.608,-11.307,-0.48
90.10633,1.922,-11.153,-0.453
90.11602,2.236,-11.075,-0.439
90.12571,2.511,-11.082,-0.401
90.1354,2.707,-11.191,-0.46
90.14509,2.824,-11.269,-0.473
90.15478,2.903,-11.275,-0.435
90.16447,2.942,-11.173,-0.337
90.17416,2.981,-11.019,-0.31
90.18385,3.02,-10.825,-0.276
90.19354,3.02,-10.6,-0.196
90.20323,2.981,-10.414,-0.124
90.21292,2.903,-10.26,-0.096
90.22261,2.864,-10.08,0.015
90.232287,2.785,-9.919,0.004
90.241964,2.628,-9.737,-0.124
90.251641,2.432,-9.576,-0.135
90.261318,2.197,-9.382,-0.101
90.270995,1.961,-9.098,-0.131
90.280672,1.804,-8.769,-0.192
90.290349,1.608,-8.401,-0.247
90.300026,1.451,-8.162,-0.244
90.309703,1.294,-7.917,-0.281
90.31938,1.216,-7.742,-0.369
90.329057,1.098,-7.612,-0.426
90.338734,0.981,-7.553,-0.535
90.348411,0.902,-7.494,-0.644
90.358088,0.863,-7.512,-0.767
90.367746,0.785,-7.615,-0.865
90.377404,0.745,-7.717,-0.962
90.387062,0.628,-7.69,-1.117
90.39672,0.588,-7.708,-1.24
90.406378,0.51,-7.726,-1.362
90.416036,0.471,-7.751,-1.446
90.425694,0.471,-7.885,-1.59
90.435352,0.471,-8.297,-1.742
90.44501,0.431,-8.792,-1.869
90.454668,0.431,-9.171,-1.976
90.464326,0.51,-9.396,-2.055
90.473984,0.549,-9.73,-2.194
90.483642,0.588,-10.226,-2.321
90.49331,0.588,-10.689,-2.403
90.502978,0.628,-10.855,-2.591
90.512646,0.588,-11.055,-2.587
90.522314,0.588,-11.03,-2.503
90.531982,0.549,-11.037,-2.464
90.54165,0.588,-11.314,-2.473
90.551318,0.667,-12.144,-2.739
90.560986,0.667,-13.419,-2.964
90.570654,0.549,-14.198,-3.061
90.580322,0.51,-14.45,-2.986
90.58999,0.51,-13.614,-2.759
90.599658,0.431,-12.394,-2.225
90.609326,0.275,-10.832,-1.591
90.61898,0.078,-9.542,-1.005
90.628634,-0.039,-9.401,-0.901
90.638288,-0.235,-9.994,-0.926
90.647942,-0.51,-10.748,-0.939
90.657596,-0.785,-11.089,-1.039
90.66725,-0.902,-10.973,-1.019
90.676904,-0.941,-10.819,-0.992
90.686558,-1.02,-10.935,-1.012
90.696212,-1.216,-11.103,-0.962
90.705866,-1.373,-10.987,-0.941
90.71552,-1.53,-10.762,-0.862
90.725174,-1.648,-10.582,-0.751
90.734828,-1.726,-10.557,-0.667
90.744482,-1.687,-10.564,-0.628
90.754148,-1.608,-10.571,-0.589
90.763814,-1.569,-10.598,-0.435
90.77348,-1.53,-10.437,-0.446
90.783146,-1.373,-10.251,-0.374
90.792812,-1.294,-10.026,-0.294
90.802478,-1.216,-9.742,-0.324
90.812144,-1.177,-9.503,-0.321
90.82181,-1.138,-9.219,-0.351
90.831476,-1.059,-8.942,-0.342
90.841142,-0.941,-8.644,-0.449
90.850808,-0.902,-8.469,-0.537
90.860474,-0.824,-8.333,-0.633
90.87014,-0.745,-8.267,-0.781
90.879808,-0.588,-8.285,-0.903
90.889476,-0.549,-8.271,-0.98
90.899144,-0.51,-8.244,-1.135
90.908812,-0.471,-8.146,-1.237
90.91848,-0.431,-8.069,-1.224
90.928148,-0.392,-7.972,-1.326
90.937816,-0.431,-7.919,-1.396
90.947484,-0.431,-7.958,-1.403
90.957152,-0.353,-7.906,-1.474
90.96682,-0.353,-7.951,-1.442
90.976488,-0.275,-7.944,-1.48
90.986156,-0.235,-7.976,-1.526
90.995824,-0.157,-8.201,-1.605
91.005492,-0.157,-8.633,-1.642
91.015193,-0.196,-8.981,-1.703
91.024894,-0.118,-9.315,-1.842
91.034595,-0.039,-9.603,-2.012
91.044296,0.039,-10.117,-2.262
91.053997,0.118,-10.844,-2.43
91.063698,0.235,-11.417,-2.571
91.073399,0.392,-12.014,-2.796
91.0831,0.51,-12.162,-2.861
91.092801,0.628,-11.86,-2.768
91.102502,0.706,-11.358,-2.68
91.112203,0.902,-11.319,-2.673
91.121904,1.02,-11.969,-2.827
91.131605,1.098,-12.369,-2.818
91.14132,1.294,-12.235,-2.675
91.151035,1.53,-11.694,-2.58
91.16075,1.648,-10.948,-2.289
91.170465,1.687,-10.151,-2.069
91.18018,1.687,-9.392,-1.855
91.189895,1.687,-8.801,-1.592
91.19961,1.687,-8.59,-1.435
91.209325,1.765,-8.965,-1.342
91.21904,1.922,-9.512,-1.398
91.228755,2.079,-9.912,-1.389
91.23847,2.393,-10.196,-1.36
91.248185,2.746,-10.48,-1.33
91.2579,3.02,-10.862,-1.198
91.267615,3.334,-11.191,-1.137
91.27734,3.609,-11.45,-1.023
91.287065,3.727,-11.516,-0.876
91.29679,3.883,-11.537,-0.76
91.306515,3.923,-11.48,-0.63
91.31624,3.883,-11.423,-0.501
91.325965,3.805,-11.275,-0.435
91.33569,3.609,-10.973,-0.342
91.345415,3.413,-10.703,-0.294
91.35514,3.138,-10.464,-0.292
91.364865,2.864,-10.148,-0.276
91.37459,2.628,-9.812,-0.376
91.384315,2.354,-9.535,-0.367
91.39404,2.118,-9.283,-0.442
91.403765,1.883,-8.939,-0.58
91.413484,1.687,-8.662,-0.571
91.423203,1.491,-8.403,-0.685
91.432922,1.294,-8.183,-0.806
91.442641,1.059,-7.976,-0.849
91.45236,0.863,-7.769,-0.892
91.462079,0.667,-7.569,-0.897
91.471798,0.51,-7.44,-0.953
91.481517,0.431,-7.394,-0.985
91.491236,0.275,-7.483,-1.16
91.500955,0.196,-7.54,-1.29
91.510674,0.078,-7.628,-1.465
91.520393,0.078,-7.84,-1.621
91.530112,0.039,-7.974,-1.764
91.539831,0,-8.044,-1.817
91.549538,0.039,-8.094,-1.985
91.559245,0.039,-8.215,-2.205
91.568952,0.078,-8.447,-2.246
91.578659,0.157,-8.981,-2.38
91.588366,0.235,-9.321,-2.48
91.598073,0.353,-9.54,-2.598
91.60778,0.588,-9.79,-2.762
91.617487,0.785,-10.117,-2.939
91.627194,0.902,-10.605,-3.105
91.636901,1.02,-11.01,-3.296
91.646608,1.098,-11.344,-3.434
91.656315,1.177,-11.408,-3.525
91.666022,1.216,-11.33,-3.511
91.675729,1.138,-11.099,-3.471
91.685446,0.981,-10.821,-3.462
91.695163,0.863,-11.169,-3.523
91.70488,0.667,-12.005,-3.75
91.714597,0.353,-12.367,-3.734
91.724314,0.196,-12.276,-3.798
91.734031,0.196,-12.128,-3.732
91.743748,0.078,-11.801,-3.555
91.753465,-0.157,-11.01,-3.296
91.763182,-0.314,-9.685,-2.903
91.772899,-0.314,-8.656,-2.642
91.782616,-0.353,-8.283,-2.496
91.792333,-0.51,-8.69,-2.448
91.80205,-0.588,-9.353,-2.526
91.811762,-0.628,-9.785,-2.562
91.821474,-0.628,-9.792,-2.523
91.831186,-0.745,-10.03,-2.525
91.840898,-0.824,-10.385,-2.548
91.85061,-0.863,-10.63,-2.512
91.860322,-0.941,-10.56,-2.459
91.870034,-1.059,-10.542,-2.337
91.879746,-1.098,-10.517,-2.253
91.889458,-1.138,-10.492,-2.169
91.89917,-1.098,-10.435,-2.039
91.908882,-1.098,-10.224,-1.882
91.918594,-1.098,-9.98,-1.68
91.928306,-1.098,-9.699,-1.471
91.938018,-1.138,-9.487,-1.314
91.94772,-1.255,-9.353,-1.171
91.957422,-1.294,-9.276,-1.158
91.967124,-1.294,-9.289,-1.08
91.976826,-1.373,-9.367,-1.094
91.986528,-1.451,-9.444,-1.108
91.99623,-1.491,-9.521,-1.121
92.005932,-1.569,-9.514,-1.16
92.015634,-1.648,-9.392,-1.178
92.025336,-1.687,-9.314,-1.164
92.035038,-1.765,-9.23,-1.189
92.04474,-1.765,-9.146,-1.214
92.054442,-1.726,-9.01,-1.31
92.064144,-1.648,-8.835,-1.399
92.073846,-1.569,-8.615,-1.519
92.083534,-1.412,-8.485,-1.576
92.093222,-1.138,-8.303,-1.703
92.10291,-0.863,-8.083,-1.824
92.112598,-0.706,-7.869,-1.905
92.122286,-0.51,-7.701,-1.955
92.131974,-0.353,-7.642,-2.064
92.141662,-0.235,-7.667,-2.149
92.15135,-0.196,-7.576,-2.212
92.161038,-0.196,-7.581,-2.412
92.170726,-0.196,-7.799,-2.53
92.180414,-0.275,-8.21,-2.682
92.190102,-0.353,-8.949,-3.012
92.19979,-0.51,-9.631,-3.212
92.209488,-0.667,-10.19,-3.43
92.219186,-0.785,-10.724,-3.564
92.228884,-0.981,-11.019,-3.696
92.238582,-1.216,-10.858,-3.707
92.24828,-1.412,-10.728,-3.764
92.257978,-1.491,-11.255,-3.936
92.267676,-1.569,-12.214,-4.145
92.277374,-1.726,-12.653,-4.143
92.287072,-1.804,-12.537,-4.123
92.29677,-1.687,-12.305,-4.082
92.306468,-1.648,-11.869,-3.845
92.316166,-1.608,-10.962,-3.566
92.325864,-1.451,-9.978,-3.273
92.335549,-1.138,-9.212,-3.098
92.345234,-0.824,-8.628,-2.796
92.354919,-0.353,-9.06,-2.832
92.364604,0.039,-9.794,-2.962
92.374289,0.431,-10.285,-2.889
92.383974,0.785,-10.344,-2.78
92.393659,1.138,-10.108,-2.539
92.403344,1.53,-10.012,-2.403
92.413029,1.844,-9.976,-2.157
92.422714,2.079,-9.978,-1.919
92.432399,2.236,-10.114,-1.823
92.442084,2.314,-9.705,-1.432
92.451769,2.393,-9.803,-1.33
92.461454,2.314,-9.894,-1.267
92.47115,2.197,-10.037,-1.132
92.480846,2.079,-10.223,-1.205
92.490542,2.118,-10.353,-1.148
92.500238,2.079,-10.457,-1.007
92.509934,2.001,-10.453,-0.807
92.51963,1.883,-10.312,-0.703
92.529326,1.765,-10.01,-0.61
92.539022,1.648,-9.778,-0.569
92.548718,1.491,-9.592,-0.496
92.558414,1.451,-9.508,-0.521
92.56811,1.255,-9.121,-0.453
92.577806,1.255,-8.953,-0.503
92.587502,1.216,-8.862,-0.567
92.597197,1.216,-8.817,-0.599
92.606892,1.255,-8.571,-0.635
92.616587,1.294,-8.499,-0.821
92.626282,1.373,-8.665,-1.01
92.635977,1.334,-8.619,-1.042
92.645672,1.451,-8.494,-1.299
92.655367,1.491,-8.474,-1.414
92.665062,1.491,-8.492,-1.537
92.674757,1.491,-8.356,-1.633
92.684452,1.451,-8.142,-1.714
92.694147,1.412,-8.006,-1.81
92.703842,1.334,-8.178,-1.96
92.713537,1.373,-8.178,-1.96
92.723232,1.451,-8.647,-2.242
92.732947,1.451,-8.794,-2.307
92.742662,1.608,-9.269,-2.551
92.752377,1.726,-9.596,-2.728
92.762092,1.883,-10.103,-3.016
92.771807,1.922,-10.676,-3.157
92.781522,2.001,-11.01,-3.296
92.791237,2.04,-11.242,-3.336
92.800952,2.079,-11.119,-3.355
92.810667,2.157,-10.88,-3.352
92.820382,2.236,-10.519,-3.368
92.830097,2.354,-10.917,-3.598
92.839812,2.432,-12.171,-3.939
92.849527,2.354,-13.355,-4.227
92.859247,2.275,-14.141,-4.286
92.868967,2.354,-13.891,-4.122
92.878687,2.354,-12.907,-3.829
92.888407,2.275,-11.305,-3.427
92.898127,2.04,-9.601,-2.928
92.907847,2.001,-8.378,-2.632
92.917567,1.922,-7.849,-2.698
92.927287,1.569,-8.183,-2.837
92.937007,1.255,-8.703,-3.048
92.946727,1.02,-9.069,-3.232
92.956447,0.902,-9.158,-3.407
92.966167,0.745,-9.342,-3.719
92.975887,0.471,-9.753,-3.871
92.985607,0.196,-9.894,-3.975
92.995322,-0.039,-9.817,-3.962
93.005037,-0.314,-9.61,-4.005
93.014752,-0.431,-9.449,-4.016
93.024467,-0.549,-9.372,-4.003
93.034182,-0.628,-9.301,-3.95
93.043897,-0.628,-9.16,-3.846
93.053612,-0.628,-8.942,-3.728
93.063327,-0.628,-8.654,-3.557
93.073042,-0.51,-8.435,-3.439
93.082757,-0.51,-8.301,-3.296
93.092472,-0.471,-8.16,-3.191
93.102187,-0.392,-8.026,-3.048
93.111902,-0.314,-7.892,-2.905
93.121617,-0.196,-7.751,-2.801
93.131324,-0.157,-7.726,-2.717
93.141031,-0.078,-7.695,-2.671
93.150738,0.039,-7.708,-2.594
93.160445,0.078,-7.676,-2.548
93.170152,0.235,-7.729,-2.478
93.179859,0.275,-7.767,-2.485
93.189566,0.353,-7.851,-2.46
93.199273,0.471,-7.91,-2.351
93.20898,0.549,-7.994,-2.326
93.218687,0.628,-8.008,-2.248
93.228394,0.745,-7.983,-2.164
93.238101,0.785,-7.919,-2.074
93.247808,0.902,-7.817,-1.976
93.257515,0.981,-7.831,-1.899
93.267205,0.981,-7.985,-1.926
93.276895,0.981,-8.147,-1.914
93.286585,1.02,-8.572,-1.989
93.296275,1.02,-8.996,-2.064
93.305965,1.059,-9.562,-2.244
93.315655,1.059,-10.199,-2.475
93.325345,1.02,-10.848,-2.63
93.335035,1.02,-11.376,-2.802
93.344725,1.02,-11.748,-2.948
93.354415,0.981,-11.889,-3.052
93.364105,0.902,-11.587,-2.959
93.373795,0.902,-11.187,-2.968
93.383485,0.902,-11.321,-3.112
93.393175,0.981,-12.126,-3.293
93.402875,0.863,-12.803,-3.293
93.412575,0.745,-12.996,-3.327
93.422275,0.941,-12.719,-3.318
93.431975,0.981,-12.262,-3.198
93.441675,0.902,-11.639,-2.889
93.451375,0.824,-10.669,-2.519
93.461075,0.745,-9.84,-2.253
93.470775,0.745,-9.421,-2.139
93.480475,0.902,-9.744,-2.116
93.490175,1.138,-10.092,-2.178
93.499875,1.491,-10.239,-2.244
93.509575,1.922,-10.271,-2.289
93.519275,2.393,-10.349,-2.303
93.528975,2.785,-10.426,-2.316
93.538675,3.138,-10.387,-2.31
93.548375,3.452,-10.264,-2.328
93.558075,3.687,-10.239,-2.244
93.567775,3.766,-10.169,-2.191
93.577475,3.805,-10.021,-2.126
93.587175,3.805,-9.733,-1.955
93.596875,3.766,-9.367,-1.771
93.606575,3.727,-8.994,-1.626
93.616275,3.648,-8.744,-1.462
93.625975,3.491,-8.565,-1.351
93.635675,3.373,-8.424,-1.246
93.645375,3.217,-8.315,-1.187
93.655075,3.06,-8.36,-1.155
93.664766,2.824,-8.328,-1.11
93.674457,2.707,-8.219,-1.051
93.684148,2.55,-8.142,-1.037
93.693839,2.432,-8.212,-1.09
93.70353,2.236,-8.174,-1.083
93.713221,2.118,-8.071,-0.985
93.722912,2.04,-8.001,-0.933
93.732603,1.883,-8.008,-0.894
93.742294,1.804,-8.053,-0.862
93.751985,1.648,-8.176,-0.844
93.761676,1.569,-8.246,-0.896
93.771367,1.53,-8.446,-0.892
93.781058,1.451,-8.562,-0.912
93.790749,1.373,-8.633,-0.965
93.800466,1.294,-8.696,-1.055
93.810183,1.412,-8.792,-1.192
93.8199,1.334,-8.915,-1.174
93.829617,1.334,-8.999,-1.149
93.839334,1.334,-9.269,-1.196
93.849051,1.373,-9.744,-1.439
93.858768,1.412,-10.13,-1.507
93.868485,1.569,-10.451,-1.723
93.878202,1.726,-10.803,-1.985
93.887919,1.844,-11.278,-2.228
93.897636,1.961,-11.76,-2.432
93.907353,2.079,-11.939,-2.543
93.91707,2.118,-11.81,-2.6
93.926786,2.079,-11.512,-2.707
93.936502,2.118,-11.158,-2.684
93.946218,2.118,-11.267,-2.743
93.955934,2.118,-12.089,-3.048
93.96565,1.961,-12.964,-3.282
93.975366,1.844,-13.439,-3.525
93.985082,1.844,-12.853,-3.461
93.994798,1.844,-11.519,-3.346
94.004514,1.765,-10.244,-3.121
94.01423,1.451,-8.719,-2.732
94.023946,1.216,-8.094,-2.662
94.033662,0.981,-8.397,-2.755
94.043378,0.785,-9.31,-2.996
94.053094,0.431,-10.09,-3.094
94.0628,0.078,-10.14,-3.262
94.072506,-0.078,-10.192,-3.191
94.082212,-0.431,-10.308,-3.212
94.091918,-0.785,-10.458,-3.039
94.101624,-1.177,-10.362,-2.903
94.11133,-1.373,-10.112,-2.739
94.121036,-1.569,-9.876,-2.498
94.130742,-1.648,-9.71,-2.31
94.140448,-1.608,-9.808,-2.207
94.150154,-1.451,-9.976,-2.157
94.15986,-1.216,-10.021,-2.126
94.169566,-0.981,-9.887,-1.982
94.179272,-0.706,-9.81,-1.969
94.188978,-0.392,-9.567,-1.767
94.198677,-0.157,-9.546,-1.882
94.208376,0.157,-9.212,-1.744
94.218075,0.431,-8.935,-1.735
94.227774,0.628,-8.401,-1.601
94.237473,0.902,-8.117,-1.63
94.247172,1.098,-7.66,-1.51
94.256871,1.294,-7.685,-1.594
94.26657,1.451,-7.64,-1.626
94.276269,1.569,-7.703,-1.717
94.285968,1.648,-8.153,-1.876
94.295667,1.569,-8.206,-1.805
94.305366,1.648,-8.024,-1.933
94.315065,1.687,-7.792,-1.892
94.324764,1.687,-7.856,-1.983
94.334476,1.648,-7.831,-1.899
94.344188,1.608,-7.799,-1.853
94.3539,1.608,-7.567,-1.812
94.363612,1.648,-7.554,-1.89
94.373324,1.648,-7.701,-1.955
94.383036,1.608,-7.997,-2.087
94.392748,1.608,-8.253,-2.212
94.40246,1.608,-8.665,-2.364
94.412172,1.608,-9.076,-2.516
94.421884,1.569,-9.635,-2.735
94.431596,1.451,-10.324,-2.896
94.441308,1.294,-10.96,-3.127
94.45102,1.138,-11.301,-3.227
94.460732,0.941,-11.146,-3.2
94.470451,0.863,-10.76,-3.132
94.48017,0.824,-10.503,-3.007
94.489889,0.706,-10.703,-3.003
94.499608,0.785,-11.642,-3.327
94.509327,0.824,-12.621,-3.42
94.519046,0.785,-12.455,-3.232
94.528765,0.941,-11.63,-3.166
94.538484,1.098,-11.019,-3.018
94.548203,0.981,-10.378,-2.587
94.557922,0.941,-9.703,-2.348
94.567641,0.981,-9.087,-2.001
94.57736,1.216,-8.999,-1.826
94.587079,1.451,-9.04,-1.594
94.596785,1.765,-9.692,-1.51
94.606491,2.04,-10.169,-1.514
94.616197,2.471,-10.408,-1.516
94.625903,2.785,-10.66,-1.441
94.635609,3.099,-11.041,-1.31
94.645315,3.334,-11.128,-1.046
94.655021,3.491,-11.039,-0.871
94.664727,3.687,-11.087,-0.601
94.674433,3.766,-11.153,-0.453
94.684139,3.805,-11.187,-0.26
94.693845,3.805,-11.291,-0.119
94.703551,3.766,-11.119,0.031
94.713257,3.727,-11.164,0.063
94.722963,3.57,-11.221,-0.067
94.732659,3.413,-11.087,0.077
94.742355,3.217,-10.746,0.176
94.752051,3.099,-10.385,0.161
94.761747,3.06,-10.266,-0.058
94.771443,2.864,-10.101,0.131
94.781139,2.707,-9.83,0.179
94.790835,2.589,-9.378,0.099
94.800531,2.432,-9.048,0.038
94.810227,2.197,-8.68,-0.017
94.819923,2.001,-8.235,-0.058
94.829619,1.844,-7.86,-0.151
94.839315,1.687,-7.601,-0.265
94.849011,1.451,-7.503,-0.367
94.858707,1.334,-7.508,-0.567
94.868415,1.216,-7.565,-0.697
94.878123,1.098,-7.66,-0.833
94.887831,0.902,-7.897,-1.074
94.897539,0.745,-8.069,-1.224
94.907247,0.667,-8.242,-1.374
94.916955,0.51,-8.215,-1.528
94.926663,0.392,-7.994,-1.649
94.936371,0.353,-7.858,-1.744
94.946079,0.314,-8.017,-1.971
94.955787,0.275,-8.435,-2.085
94.965495,0.196,-8.942,-2.373
94.975203,0.196,-9.571,-2.644
94.984911,0.275,-9.969,-2.873
94.994619,0.51,-10.212,-3.075
95.004327,0.588,-10.726,-3.325
95.014035,0.863,-11.26,-3.459
95.023743,0.902,-11.383,-3.441
95.033451,0.981,-10.93,-3.521
95.043159,1.098,-10.312,-3.412
95.052867,1.138,-9.894,-3.298
95.062575,1.177,-9.887,-3.337
95.072283,1.294,-10.794,-3.616
95.081991,1.334,-12.023,-3.873
95.091699,1.294,-12.701,-3.873
95.101407,1.373,-12.423,-3.864
95.111115,1.412,-11.285,-3.543
95.120823,1.334,-9.549,-2.998
95.130524,1.373,-8.031,-2.571
95.140225,1.294,-7.285,-2.28
95.149926,1.216,-7.801,-2.292
95.159627,1.02,-9.065,-2.355
95.169328,0.824,-10.174,-2.391
95.179029,0.706,-10.651,-2.396
95.18873,0.588,-10.58,-2.344
95.198431,0.431,-10.646,-2.196
95.208132,0.314,-10.828,-2.069
95.217833,0.275,-10.926,-1.966
95.227534,0.196,-10.998,-1.78
95.237235,0.235,-10.871,-1.598
95.246936,0.314,-10.867,-1.398
95.256637,0.392,-11.126,-1.285
95.266324,0.431,-11.387,-0.932
95.276011,0.471,-11.459,-0.746
95.285698,0.588,-11.346,-0.487
95.295385,0.588,-11.264,-0.273
95.305072,0.628,-11.369,-0.132
95.314759,0.667,-11.375,-0.094
95.324446,0.667,-11.169,-0.137
95.334133,0.667,-10.762,-0.185
95.34382,0.667,-10.285,-0.18
95.353507,0.628,-9.73,-0.162
95.363194,0.628,-9.271,-0.28
95.372881,0.667,-8.896,-0.374
95.382568,0.706,-8.585,-0.558
95.392255,0.745,-8.312,-0.749
95.401956,0.745,-8.169,-0.883
95.411657,0.824,-8.096,-1.069
95.421358,0.902,-7.94,-1.28
95.431059,0.941,-7.881,-1.39
95.44076,0.981,-7.706,-1.478
95.450461,0.941,-7.531,-1.567
95.460162,0.941,-7.401,-1.624
95.469863,0.902,-7.317,-1.649
95.479564,0.863,-7.194,-1.667
95.489265,0.785,-7.181,-1.744
95.498966,0.706,-7.476,-1.876
95.508667,0.588,-7.669,-1.91
95.518368,0.549,-7.919,-2.074
95.528066,0.549,-8.272,-2.335
95.537764,0.549,-8.851,-2.437
95.547462,0.51,-9.565,-2.682
95.55716,0.549,-10.253,-2.844
95.566858,0.628,-10.871,-2.953
95.576556,0.706,-11.335,-3.034
95.586254,0.706,-11.226,-2.975
95.595952,0.706,-10.73,-2.848
95.60565,0.863,-10.46,-2.8
95.615348,0.902,-11.271,-2.943
95.625046,0.941,-12.469,-3.155
95.634744,0.824,-12.516,-2.884
95.644442,1.02,-11.551,-2.714
95.65414,1.255,-10.81,-2.623
95.663841,1.255,-10.38,-2.348
95.673542,0.981,-9.746,-1.878
95.683243,0.863,-8.731,-1.539
95.692944,0.785,-8.217,-1.29
95.702645,0.706,-8.469,-1.215
95.712346,0.902,-9.262,-1.235
95.722047,1.216,-10.003,-1.326
95.731748,1.648,-10.582,-1.428
95.741449,2.157,-11.235,-1.344
95.75115,2.628,-11.919,-1.305
95.760851,2.903,-12.598,-1.066
95.770552,3.06,-12.955,-0.85
95.780253,3.256,-13.002,-0.58
95.789954,3.452,-12.927,-0.328
95.799662,3.53,-12.673,0.036
95.80937,3.648,-12.346,0.213
95.819078,3.727,-11.973,0.358
95.828786,3.609,-11.58,0.388
95.838494,3.491,-11.264,0.404
95.848202,3.256,-10.812,0.324
95.85791,2.981,-10.398,0.238
95.867618,2.707,-10.016,0.106
95.877326,2.432,-9.628,-0.065
95.887034,2.118,-9.201,-0.228
95.896742,1.804,-8.78,-0.353
95.90645,1.53,-8.392,-0.524
95.916158,1.294,-8.049,-0.662
95.925866,1.02,-7.803,-0.699
95.935585,0.863,-7.597,-0.742
95.945304,0.588,-7.422,-0.831
95.955023,0.431,-7.285,-0.926
95.964742,0.314,-7.149,-1.022
95.974461,0.235,-7.051,-1.124
95.98418,0.235,-7.178,-1.306
95.993899,0.196,-7.397,-1.424
96.003618,0.157,-7.608,-1.58
96.013337,0.275,-7.633,-1.665
96.023056,0.314,-7.594,-1.658
96.032775,0.353,-7.549,-1.69
96.042494,0.431,-7.683,-1.833
96.052213,0.471,-8.133,-1.992
96.061905,0.549,-8.628,-2.119
96.071597,0.628,-8.962,-2.257
96.081289,0.667,-9.212,-2.421
96.090981,0.706,-9.437,-2.501
96.100673,0.745,-9.842,-2.691
96.110365,0.785,-10.415,-2.832
96.120057,0.785,-10.871,-2.953
96.129749,0.824,-11.089,-3.071
96.139441,0.863,-11.114,-3.155
96.149133,0.863,-11.037,-3.141
96.158825,0.863,-10.883,-3.114
96.168517,0.902,-10.735,-3.048
96.178209,0.941,-11.308,-3.189
96.187901,0.981,-12.196,-3.345
96.197593,0.981,-12.976,-3.443
96.207279,1.059,-13.13,-3.47
96.216965,1.216,-12.603,-3.298
96.226651,1.373,-11.83,-3.161
96.236337,1.294,-10.583,-2.782
96.246023,1.138,-9.181,-2.376
96.255709,1.138,-8.176,-2.198
96.265395,1.098,-8.022,-2.171
96.275081,0.941,-8.512,-2.098
96.284767,0.745,-8.926,-2.012
96.294453,0.706,-9.255,-1.951
96.304139,0.667,-9.649,-1.98
96.313825,0.314,-10.167,-1.753
96.323511,-0.157,-10.517,-1.576
96.333171,-0.706,-10.648,-1.28
96.342831,-1.177,-10.812,-1.03
96.352491,-1.373,-11.187,-0.937
96.362151,-1.53,-11.164,-0.614
96.371811,-1.53,-11.16,-0.414
96.381471,-1.373,-10.948,-0.258
96.391131,-1.177,-10.782,-0.069
96.400791,-0.941,-10.5,0.14
96.410451,-0.745,-10.346,0.167
96.420111,-0.392,-10.275,0.22
96.429771,0.039,-10.339,0.129
96.439431,0.471,-10.364,0.045
96.449091,0.941,-10.266,-0.058
96.458751,1.373,-10.053,-0.139
96.468389,1.765,-9.607,-0.18
96.478027,2.001,-9.355,-0.255
96.487665,2.236,-9.192,-0.505
96.497303,2.314,-8.912,-0.735
96.506941,2.314,-8.621,-0.803
96.516579,2.314,-8.228,-0.774
96.526217,2.314,-7.969,-0.887
96.535855,2.354,-7.917,-0.958
96.545493,2.275,-8.058,-1.062
96.555131,2.118,-8.083,-1.146
96.564769,2.001,-8.081,-1.385
96.574407,1.844,-8.049,-1.34
96.584045,1.804,-8.003,-1.371
96.593683,1.726,-7.978,-1.287
96.603326,1.648,-7.799,-1.176
96.612969,1.687,-8.133,-1.315
96.622612,1.491,-8.649,-1.326
96.632255,1.334,-9.049,-1.317
96.641898,1.334,-9.467,-1.43
96.651541,1.216,-9.762,-1.562
96.661184,1.177,-10.026,-1.648
96.670827,1.334,-10.444,-1.762
96.68047,1.412,-10.778,-1.9
96.690113,1.451,-11.157,-2.007
96.699756,1.451,-11.189,-2.053
96.709399,1.451,-11.073,-2.032
96.719042,1.451,-11.176,-2.13
96.7287,1.648,-12.412,-2.348
96.738358,1.687,-13.089,-2.348
96.748016,1.961,-13.044,-2.38
96.757674,2.197,-12.753,-2.448
96.767332,1.961,-12.091,-2.132
96.77699,1.804,-11.237,-1.782
96.786648,1.608,-10.098,-1.462
96.796306,1.451,-9.185,-1.221
96.805964,1.373,-9.012,-1.071
96.815622,1.255,-9.553,-1.167
96.82528,1.255,-10.178,-1.237
96.834938,1.412,-10.192,-1.16
96.844596,1.687,-10.23,-1.167
96.854254,1.844,-10.423,-1.201
96.863917,1.844,-10.644,-1.08
96.87358,2.001,-10.901,-1.205
96.883243,1.922,-10.573,-1.028
96.892906,1.961,-10.601,-0.873
96.902569,2.001,-10.705,-0.732
96.912232,2.04,-10.796,-0.669
96.921895,2.118,-10.732,-0.578
96.931558,2.118,-10.63,-0.48
96.941221,2.118,-10.566,-0.389
96.950884,2.04,-10.482,-0.414
96.960547,1.961,-10.373,-0.355
96.97021,1.883,-10.141,-0.314
96.979873,1.844,-9.903,-0.312
96.989536,1.765,-9.703,-0.317
96.999228,1.687,-9.387,-0.301
97.00892,1.648,-9.212,-0.39
97.018612,1.569,-8.96,-0.465
97.028304,1.491,-8.676,-0.494
97.037996,1.412,-8.444,-0.453
97.047688,1.334,-8.237,-0.496
97.05738,1.294,-8.108,-0.553
97.067072,1.216,-7.933,-0.642
97.076764,1.138,-7.856,-0.628
97.086456,1.02,-7.842,-0.706
97.096148,0.902,-7.828,-0.783
97.10584,0.745,-7.853,-0.867
97.115532,0.588,-7.917,-0.958
97.125228,0.392,-8.012,-1.094
97.134924,0.235,-8.051,-1.101
97.14462,0.157,-8.083,-1.146
97.154316,0.039,-8.076,-1.185
97.164012,0,-8.146,-1.237
97.173708,0,-8.308,-1.226
97.183404,0,-8.694,-1.294
97.1931,0,-8.894,-1.289
97.202796,0.157,-9.165,-1.337
97.212492,0.314,-9.639,-1.58
97.222188,0.431,-10.398,-1.794
97.231884,0.549,-11.048,-1.948
97.24158,0.706,-11.203,-1.975
97.251276,0.863,-11.087,-1.955
97.260996,1.02,-10.932,-1.928
97.270716,1.098,-10.869,-1.837
97.280436,1.177,-10.921,-1.766
97.290156,1.255,-11.616,-1.889
97.299876,1.255,-12.846,-2.146
97.309596,1.098,-13.607,-2.12
97.319316,1.177,-13.968,-2.105
97.329036,1.255,-13.589,-1.998
97.338756,1.294,-12.843,-1.707
97.348476,1.216,-11.841,-1.291
97.358196,1.059,-10.376,-0.794
97.367916,1.059,-9.533,-0.605
97.377636,0.902,-9.655,-0.587
97.387352,0.51,-10.396,-0.678
97.397068,0.157,-10.975,-0.78
97.406784,-0.118,-11.162,-0.853
97.4165,-0.275,-11.039,-0.871
97.426216,-0.471,-10.962,-0.857
97.435932,-0.667,-11.116,-0.885
97.445648,-0.902,-11.123,-0.846
97.455364,-1.177,-10.937,-0.773
97.46508,-1.334,-10.628,-0.719
97.474796,-1.491,-10.487,-0.614
97.484512,-1.569,-10.455,-0.569
97.494228,-1.53,-10.43,-0.485
97.503944,-1.451,-10.353,-0.471
97.51366,-1.334,-10.16,-0.437
97.523391,-1.177,-9.98,-0.326
97.533122,-1.059,-9.869,-0.505
97.542853,-0.902,-9.707,-0.517
97.552584,-0.745,-9.508,-0.521
97.562315,-0.588,-9.269,-0.519
97.572046,-0.431,-9.062,-0.562
97.581777,-0.275,-8.849,-0.644
97.591508,-0.118,-8.68,-0.694
97.601239,0,-8.59,-0.758
97.61097,0.118,-8.569,-0.874
97.620701,0.235,-8.555,-0.951
97.630432,0.353,-8.574,-1.074
97.640163,0.431,-8.567,-1.112
97.649886,0.51,-8.546,-1.228
97.659609,0.549,-8.494,-1.299
97.669332,0.588,-8.281,-1.38
97.679055,0.588,-8.308,-1.226
97.688778,0.549,-8.294,-1.303
97.698501,0.51,-8.287,-1.342
97.708224,0.471,-8.281,-1.38
97.717947,0.431,-8.151,-1.437
97.72767,0.392,-8.151,-1.437
97.737393,0.392,-8.337,-1.51
97.747116,0.314,-8.769,-1.546
97.756839,0.275,-8.93,-1.535
97.766562,0.275,-9.194,-1.621
97.776285,0.275,-9.528,-1.76
97.786021,0.275,-10.139,-1.907
97.795757,0.196,-10.751,-2.055
97.805493,0.157,-11.278,-2.228
97.815229,0.196,-11.735,-2.348
97.824965,0.157,-11.851,-2.368
97.834701,0.196,-11.664,-2.296
97.844437,0.275,-11.619,-2.328
97.854173,0.314,-12.069,-2.487
97.863909,0.353,-12.61,-2.582
97.873645,0.431,-12.848,-2.584
97.883381,0.51,-12.648,-2.589
97.893117,0.549,-12.185,-2.507
97.902853,0.51,-11.703,-2.303
97.912588,0.471,-10.971,-1.935
97.922323,0.353,-9.871,-1.621
97.932058,0.275,-8.887,-1.328
97.941793,0.275,-8.624,-1.242
97.951528,0.275,-9.294,-1.28
97.961263,0.314,-9.887,-1.305
97.970998,0.471,-10.119,-1.346
97.980733,0.745,-10.151,-1.392
97.990468,1.02,-10.273,-1.373
98.000203,1.216,-10.467,-1.407
98.009938,1.412,-10.635,-1.357
98.019673,1.687,-10.719,-1.332
98.029408,1.883,-10.771,-1.262
98.039143,2.04,-10.823,-1.191
98.048864,2.197,-10.844,-1.076
98.058585,2.314,-10.826,-0.953
98.068306,2.393,-10.607,-0.835
98.078027,2.354,-10.389,-0.717
98.087748,2.314,-10.235,-0.689
98.097469,2.236,-10.08,-0.662
98.10719,2.118,-9.926,-0.635
98.116911,2.001,-9.764,-0.646
98.126632,1.883,-9.519,-0.683
98.136353,1.726,-9.351,-0.733
98.146074,1.608,-9.228,-0.751
98.155795,1.451,-8.976,-0.826
98.165516,1.294,-8.769,-0.869
98.175237,1.177,-8.601,-0.919
98.184965,1.098,-8.465,-1.015
98.194693,0.941,-8.265,-1.019
98.204421,0.824,-8.103,-1.031
98.214149,0.667,-7.942,-1.042
98.223877,0.549,-7.897,-1.074
98.233605,0.431,-7.831,-1.221
98.243333,0.392,-7.778,-1.292
98.253061,0.314,-7.881,-1.39
98.262789,0.235,-7.944,-1.48
98.272517,0.196,-8.008,-1.571
98.282245,0.196,-8.072,-1.662
98.291973,0.157,-8.167,-1.799
98.301701,0.196,-8.276,-1.858
98.311424,0.235,-8.487,-2.014
98.321147,0.392,-8.944,-2.135
98.33087,0.314,-9.221,-2.144
98.340593,0.392,-9.53,-2.198
98.350316,0.51,-9.812,-2.407
98.360039,0.588,-10.371,-2.625
98.369762,0.706,-10.989,-2.734
98.379485,0.824,-11.323,-2.873
98.389208,0.863,-11.355,-2.918
98.398931,0.902,-11.194,-2.93
98.408654,0.863,-10.892,-2.837
98.418377,0.824,-10.48,-2.684
98.4281,0.863,-10.621,-2.789
98.437823,0.902,-11.664,-2.973
98.447541,0.785,-12.605,-3.059
98.457259,0.706,-13.075,-3.102
98.466977,0.824,-13.114,-3.109
98.476695,0.706,-12.569,-2.814
98.486413,0.667,-11.353,-2.48
98.496131,0.549,-9.86,-2.137
98.505849,0.51,-8.792,-1.869
98.515567,0.51,-8.69,-1.771
98.525285,0.353,-9.56,-1.805
98.535003,0.157,-10.501,-1.891
98.544721,0.078,-11.126,-1.962
98.554439,0,-11.01,-1.941
98.564157,-0.039,-10.964,-1.973
98.573875,-0.353,-10.978,-1.896
98.583562,-0.431,-10.921,-1.766
98.593249,-0.588,-10.742,-1.655
98.602936,-0.706,-10.439,-1.562
98.612623,-0.785,-10.267,-1.412
98.62231,-0.785,-10.158,-1.353
98.631997,-0.706,-10.017,-1.248
98.641684,-0.667,-9.953,-1.158
98.651371,-0.51,-9.798,-1.13
98.661058,-0.353,-9.587,-0.973
98.670745,-0.275,-9.362,-0.894
98.680432,-0.157,-9.214,-0.828
98.690119,0,-9.144,-0.776
98.699806,0.078,-9.144,-0.776
98.709493,0.078,-9.189,-0.744
98.719186,0.196,-9.119,-0.692
98.728879,0.392,-9.185,-0.544
98.738572,0.51,-9.158,-0.699
98.748265,0.588,-9.144,-0.776
98.757958,0.588,-9.092,-0.846
98.767651,0.588,-9.117,-0.93
98.777344,0.588,-9.11,-0.969
98.787037,0.588,-9.103,-1.008
98.79673,0.588,-9.058,-1.039
98.806423,0.588,-8.935,-1.058
98.816116,0.588,-8.774,-1.069
98.825809,0.588,-8.683,-1.133
98.835502,0.51,-8.599,-1.158
98.845198,0.51,-8.515,-1.183
98.854894,0.51,-8.431,-1.208
98.86459,0.431,-8.371,-1.317
98.874286,0.392,-8.396,-1.401
98.883982,0.471,-8.737,-1.501
98.893678,0.471,-8.892,-1.528
98.903374,0.51,-8.994,-1.626
98.91307,0.549,-9.244,-1.789
98.922766,0.588,-9.687,-1.987
98.932462,0.588,-10.408,-2.194
98.942158,0.588,-11.037,-2.464
98.951854,0.628,-11.571,-2.598
98.96155,0.588,-11.789,-2.716
98.971246,0.549,-11.435,-2.693
98.980941,0.628,-10.792,-2.5
98.990636,0.667,-10.501,-2.569
99.000331,0.745,-10.971,-2.612
99.010026,0.824,-12.039,-2.88
99.019721,0.785,-12.439,-2.871
99.029416,0.902,-11.976,-2.789
99.039111,1.138,-11.389,-2.725
99.048806,1.177,-10.939,-2.566
99.058501,1.059,-10.31,-2.296
99.068196,1.02,-9.705,-2.11
99.077891,0.981,-9.076,-1.839
99.087586,0.981,-8.594,-1.635
99.097281,1.098,-8.794,-1.63
99.106976,1.177,-9.419,-1.701
99.116648,1.294,-10.012,-1.726
99.12632,1.608,-10.264,-1.651
99.135992,1.883,-10.394,-1.594
99.145664,2.197,-10.576,-1.466
99.155336,2.471,-10.732,-1.255
99.165008,2.707,-10.798,-1.107
99.17468,2.942,-10.826,-0.953
99.184352,3.02,-10.93,-0.812
99.194024,3.06,-11.035,-0.671
99.203696,3.02,-11.055,-0.555
99.213368,3.02,-10.921,-0.412
99.22304,2.942,-10.773,-0.346
